Z-Pos[um]|R[MOhm]|I[pA]
59,038    106,339    1411
59,028    106,866    1404
59,018    106,376    1410
59,008    106,546    1408
58,998    106,367    1410
58,988    106,082    1414
58,978    106,284    1411
58,968    106,551    1408
58,958    106,224    1412
58,948    106,362    1410
58,938    106,178    1413
58,928    106,128    1413
58,918    106,482    1409
58,908    106,311    1411
58,898    106,376    1410
58,888    106,284    1411
58,878    106,160    1413
58,868    106,630    1407
58,858    106,362    1410
58,848    106,330    1411
58,838    106,385    1410
58,828    106,265    1412
58,818    106,445    1409
58,808    106,311    1411
58,798    106,288    1411
58,788    106,376    1410
58,778    106,293    1411
58,768    106,353    1410
58,758    106,367    1410
58,748    106,667    1406
58,738    106,371    1410
58,728    106,169    1413
58,718    106,468    1409
58,708    106,500    1408
58,698    106,027    1415
58,688    106,417    1410
58,678    106,219    1412
58,668    106,431    1409
58,658    106,459    1409
58,648    106,169    1413
58,638    106,339    1411
58,628    106,436    1409
58,618    106,514    1408
58,608    106,390    1410
58,598    106,187    1413
58,588    106,380    1410
58,578    106,440    1409
58,568    106,353    1410
58,558    106,496    1409
58,548    106,174    1413
58,538    106,137    1413
58,528    106,445    1409
58,518    106,330    1411
58,508    106,132    1413
58,498    106,431    1409
58,488    106,463    1409
58,478    106,560    1408
58,468    106,704    1406
58,458    106,454    1409
58,448    106,265    1412
58,438    106,505    1408
58,428    106,206    1412
58,418    106,362    1410
58,408    106,201    1412
58,398    106,307    1411
58,388    106,436    1409
58,378    106,252    1412
58,368    106,219    1412
58,358    106,288    1411
58,348    106,408    1410
58,338    106,616    1407
58,328    106,321    1411
58,318    106,265    1412
58,308    106,325    1411
58,298    106,403    1410
58,288    106,676    1406
58,278    106,611    1407
58,268    106,252    1412
58,258    106,542    1408
58,248    106,252    1412
58,238    106,371    1410
58,228    106,496    1409
58,218    106,219    1412
58,208    106,325    1411
58,198    106,468    1409
58,188    106,247    1412
58,178    106,348    1410
58,168    106,091    1414
58,158    106,141    1413
58,148    106,394    1410
58,138    106,233    1412
58,128    106,362    1410
58,118    106,238    1412
58,108    106,151    1413
58,098    106,574    1407
58,088    106,298    1411
58,078    106,399    1410
58,068    106,334    1411
58,058    106,100    1414
58,048    106,523    1408
58,038    106,367    1410
58,028    106,450    1409
58,018    106,321    1411
58,008    106,371    1410
57,998    106,371    1410
57,988    106,270    1411
57,978    106,252    1412
57,968    106,316    1411
57,958    106,348    1410
57,948    106,357    1410
57,938    106,302    1411
57,928    106,270    1411
57,918    106,454    1409
57,908    106,394    1410
57,898    106,463    1409
57,888    106,509    1408
57,878    106,183    1413
57,868    106,380    1410
57,858    106,242    1412
57,848    106,357    1410
57,838    106,556    1408
57,828    106,155    1413
57,818    106,463    1409
57,808    106,362    1410
57,798    106,275    1411
57,788    106,505    1408
57,778    106,137    1413
57,768    106,477    1409
57,758    106,238    1412
57,748    106,357    1410
57,738    106,344    1411
57,728    106,229    1412
57,718    106,394    1410
57,708    106,533    1408
57,698    106,399    1410
57,688    106,454    1409
57,678    106,164    1413
57,668    106,302    1411
57,658    106,445    1409
57,648    106,247    1412
57,638    106,431    1409
57,628    106,279    1411
57,618    106,050    1414
57,608    106,500    1408
57,598    106,293    1411
57,588    106,565    1408
57,578    106,224    1412
57,568    106,192    1413
57,558    106,519    1408
57,548    106,233    1412
57,538    106,408    1410
57,528    106,403    1410
57,518    106,390    1410
57,508    106,473    1409
57,498    106,178    1413
57,488    106,371    1410
57,478    106,390    1410
57,468    106,362    1410
57,458    106,459    1409
57,448    106,403    1410
57,438    106,201    1412
57,428    106,339    1411
57,418    106,298    1411
57,408    106,630    1407
57,398    106,560    1408
57,388    106,242    1412
57,378    106,945    1403
57,368    106,426    1409
57,358    106,431    1409
57,348    106,509    1408
57,338    106,132    1413
57,328    106,537    1408
57,318    106,630    1407
57,308    106,593    1407
57,298    106,533    1408
57,288    106,233    1412
57,278    106,491    1409
57,268    106,639    1407
57,258    106,514    1408
57,248    106,551    1408
57,238    106,362    1410
57,228    106,514    1408
57,218    106,667    1406
57,208    106,436    1409
57,198    106,759    1405
57,188    106,491    1409
57,178    106,463    1409
57,168    106,792    1405
57,158    106,936    1403
57,148    106,806    1404
57,138    106,533    1408
57,128    106,824    1404
57,118    107,122    1400
57,108    106,931    1403
57,098    107,104    1401
57,088    107,108    1400
57,078    107,413    1396
57,068    107,860    1391
57,058    108,604    1381
57,048    109,719    1367
57,038    111,405    1346
