Z-Pos[um]|R[MOhm]|I[pA]
59,075    106,242    1412
59,065    107,015    1402
59,055    106,468    1409
59,045    106,293    1411
59,035    106,376    1410
59,025    106,050    1414
59,015    106,385    1410
59,005    106,579    1407
58,995    106,174    1413
58,985    106,514    1408
58,975    106,376    1410
58,965    106,293    1411
58,955    106,556    1408
58,945    106,376    1410
58,935    106,187    1413
58,925    106,454    1409
58,915    106,206    1412
58,905    106,620    1407
58,895    106,903    1403
58,885    106,597    1407
58,875    106,551    1408
58,865    106,954    1402
58,855    106,801    1404
58,845    106,579    1407
58,835    106,468    1409
58,825    106,727    1405
58,815    106,509    1408
58,805    106,316    1411
58,795    106,644    1407
58,785    106,773    1405
58,775    106,417    1410
58,765    106,602    1407
58,755    106,537    1408
58,745    106,417    1410
58,735    106,574    1407
58,725    106,450    1409
58,715    106,119    1414
58,705    106,385    1410
58,695    106,307    1411
58,685    106,344    1411
58,675    106,334    1411
58,665    105,940    1416
58,655    106,339    1411
58,645    106,376    1410
58,635    106,348    1410
58,625    106,394    1410
58,615    106,233    1412
58,605    106,132    1413
58,595    106,556    1408
58,585    106,307    1411
58,575    106,376    1410
58,565    106,201    1412
58,555    106,155    1413
58,545    106,570    1408
58,535    106,123    1413
58,525    106,265    1412
58,515    106,151    1413
58,505    106,293    1411
58,495    106,357    1410
58,485    106,219    1412
58,475    106,137    1413
58,465    106,224    1412
58,455    106,344    1411
58,445    106,275    1411
58,435    106,413    1410
58,425    106,146    1413
58,415    106,330    1411
58,405    106,311    1411
58,395    106,311    1411
58,385    106,403    1410
58,375    106,073    1414
58,365    106,426    1409
58,355    106,736    1405
58,345    106,616    1407
58,335    106,533    1408
58,325    106,293    1411
58,315    106,284    1411
58,305    106,491    1409
58,295    106,256    1412
58,285    106,132    1413
58,275    106,473    1409
58,265    106,339    1411
58,255    106,403    1410
58,245    106,496    1409
58,235    106,114    1414
58,225    106,431    1409
58,215    106,417    1410
58,205    106,509    1408
58,195    106,302    1411
58,185    106,146    1413
58,175    106,371    1410
58,165    106,371    1410
58,155    106,505    1408
58,145    106,390    1410
58,135    106,215    1412
58,125    106,486    1409
58,115    106,353    1410
58,105    106,261    1412
58,095    106,353    1410
58,085    106,073    1414
58,075    106,284    1411
58,065    106,417    1410
58,055    106,950    1403
58,045    106,128    1413
58,035    106,454    1409
58,025    106,348    1410
58,015    106,279    1411
58,005    106,376    1410
57,995    106,233    1412
57,985    106,174    1413
57,975    106,496    1409
57,965    106,238    1412
57,955    106,334    1411
57,945    106,174    1413
57,935    106,376    1410
57,925    106,496    1409
57,915    106,238    1412
57,905    106,463    1409
57,895    106,634    1407
57,885    106,252    1412
57,875    106,477    1409
57,865    106,325    1411
57,855    106,169    1413
57,845    106,348    1410
57,835    106,316    1411
57,825    106,477    1409
57,815    106,542    1408
57,805    106,197    1412
57,795    106,169    1413
57,785    106,367    1410
57,775    106,422    1409
57,765    106,450    1409
57,755    106,307    1411
57,745    106,229    1412
57,735    106,583    1407
57,725    106,334    1411
57,715    106,459    1409
57,705    106,252    1412
57,695    106,164    1413
57,685    106,505    1408
57,675    106,238    1412
57,665    106,183    1413
57,655    106,155    1413
57,645    106,463    1409
57,635    106,477    1409
57,625    106,247    1412
57,615    106,298    1411
57,605    106,450    1409
57,595    106,477    1409
57,585    106,311    1411
57,575    106,482    1409
57,565    106,357    1410
57,555    106,353    1410
57,545    106,533    1408
57,535    106,293    1411
57,525    106,542    1408
57,515    106,288    1411
57,505    106,265    1412
57,495    106,560    1408
57,485    106,279    1411
57,475    106,403    1410
57,465    106,215    1412
57,455    106,210    1412
57,445    106,699    1406
57,435    106,357    1410
57,425    106,325    1411
57,415    106,367    1410
57,405    106,316    1411
57,395    106,533    1408
57,385    106,871    1404
57,375    106,685    1406
57,365    106,959    1402
57,355    107,024    1402
57,345    106,815    1404
57,335    106,732    1405
57,325    106,866    1404
57,315    106,908    1403
57,305    106,806    1404
57,295    106,792    1405
57,285    106,625    1407
57,275    106,570    1408
57,265    106,792    1405
57,255    106,899    1403
57,245    106,523    1408
57,235    106,773    1405
57,225    107,146    1400
57,215    106,852    1404
57,205    106,727    1405
57,195    107,108    1400
57,185    106,927    1403
57,175    106,950    1403
57,165    107,141    1400
57,155    106,964    1402
57,145    106,783    1405
57,135    106,908    1403
57,125    107,865    1391
57,115    108,217    1386
57,105    106,982    1402
57,095    107,846    1391
57,085    116,479    1288
57,075    108,787    1379
57,065    224,520    668
57,055    117,729    1274
