Z-Pos[um]|R[MOhm]|I[pA]
58,980    106,473    1409
58,970    106,838    1404
58,960    106,648    1406
58,950    106,482    1409
58,940    106,607    1407
58,930    106,422    1409
58,920    106,201    1412
58,910    106,560    1408
58,900    106,403    1410
58,890    106,473    1409
58,880    106,482    1409
58,870    106,523    1408
58,860    106,551    1408
58,850    106,857    1404
58,840    106,206    1412
58,830    106,713    1406
58,820    106,288    1411
58,810    106,565    1408
58,800    106,570    1408
58,790    106,380    1410
58,780    106,073    1414
58,770    106,399    1410
58,760    106,367    1410
58,750    106,473    1409
58,740    106,353    1410
58,730    106,183    1413
58,720    106,519    1408
58,710    106,445    1409
58,700    106,298    1411
58,690    106,477    1409
58,680    106,334    1411
58,670    106,482    1409
58,660    106,523    1408
58,650    106,183    1413
58,640    106,671    1406
58,630    106,141    1413
58,620    106,413    1410
58,610    106,741    1405
58,600    106,390    1410
58,590    106,321    1411
58,580    106,667    1406
58,570    106,616    1407
58,560    106,473    1409
58,550    106,718    1406
58,540    106,399    1410
58,530    106,528    1408
58,520    106,713    1406
58,510    106,783    1405
58,500    106,542    1408
58,490    106,583    1407
58,480    106,936    1403
58,470    106,718    1406
58,460    106,560    1408
58,450    106,344    1411
58,440    106,367    1410
58,430    106,413    1410
58,420    106,403    1410
58,410    106,164    1413
58,400    106,325    1411
58,390    106,639    1407
58,380    106,422    1409
58,370    106,330    1411
58,360    106,151    1413
58,350    106,109    1414
58,340    106,496    1409
58,330    106,242    1412
58,320    106,311    1411
58,310    106,206    1412
58,300    106,330    1411
58,290    106,426    1409
58,280    106,229    1412
58,270    106,491    1409
58,260    106,357    1410
58,250    106,298    1411
58,240    106,533    1408
58,230    106,371    1410
58,220    106,376    1410
58,210    106,178    1413
58,200    106,219    1412
58,190    106,546    1408
58,180    106,908    1403
58,170    106,450    1409
58,160    106,593    1407
58,150    106,927    1403
58,140    106,889    1403
58,130    106,546    1408
58,120    106,927    1403
58,110    106,838    1404
58,100    107,001    1402
58,090    106,288    1411
58,080    106,238    1412
58,070    106,450    1409
58,060    106,445    1409
58,050    106,634    1407
58,040    106,082    1414
58,030    106,279    1411
58,020    106,542    1408
58,010    106,275    1411
58,000    106,284    1411
57,990    106,100    1414
57,980    106,330    1411
57,970    106,523    1408
57,960    106,192    1413
57,950    106,399    1410
57,940    106,344    1411
57,930    106,321    1411
57,920    106,551    1408
57,910    106,252    1412
57,900    106,445    1409
57,890    106,192    1413
57,880    106,403    1410
57,870    106,496    1409
57,860    106,261    1412
57,850    106,197    1412
57,840    106,390    1410
57,830    106,316    1411
57,820    106,505    1408
57,810    106,408    1410
57,800    106,068    1414
57,790    106,399    1410
57,780    106,210    1412
57,770    106,440    1409
57,760    106,367    1410
57,750    106,256    1412
57,740    106,293    1411
57,730    106,233    1412
57,720    106,491    1409
57,710    106,477    1409
57,700    106,311    1411
57,690    106,473    1409
57,680    106,288    1411
57,670    106,491    1409
57,660    106,413    1410
57,650    106,183    1413
57,640    106,509    1408
57,630    106,339    1411
57,620    106,344    1411
57,610    106,353    1410
57,600    106,160    1413
57,590    106,463    1409
57,580    106,519    1408
57,570    106,533    1408
57,560    106,454    1409
57,550    106,169    1413
57,540    106,348    1410
57,530    106,588    1407
57,520    106,408    1410
57,510    106,560    1408
57,500    106,265    1412
57,490    106,413    1410
57,480    106,463    1409
57,470    106,344    1411
57,460    106,357    1410
57,450    106,265    1412
57,440    106,321    1411
57,430    106,551    1408
57,420    106,311    1411
57,410    106,482    1409
57,400    106,288    1411
57,390    106,307    1411
57,380    106,560    1408
57,370    106,362    1410
57,360    106,556    1408
57,350    106,288    1411
57,340    106,348    1410
57,330    106,801    1404
57,320    106,593    1407
57,310    106,468    1409
57,300    106,616    1407
57,290    106,704    1406
57,280    106,616    1407
57,270    106,616    1407
57,260    106,376    1410
57,250    106,215    1412
57,240    106,690    1406
57,230    106,454    1409
57,220    106,367    1410
57,210    106,588    1407
57,200    106,413    1410
57,190    106,681    1406
57,180    106,528    1408
57,170    106,394    1410
57,160    106,616    1407
57,150    106,454    1409
57,140    106,755    1405
57,130    106,607    1407
57,120    106,523    1408
57,110    106,927    1403
57,100    106,769    1405
57,090    106,810    1404
57,080    106,769    1405
57,070    107,052    1401
57,060    107,525    1395
57,050    106,727    1405
57,040    107,146    1400
57,030    109,455    1370
57,020    107,136    1400
57,010    108,878    1378
57,000    110,464    1358
56,990    114,307    1312
56,980    113,410    1323
