Z-Pos[um]|R[MOhm]|I[pA]
59,060    106,454    1409
59,050    106,468    1409
59,040    106,160    1413
59,030    106,473    1409
59,020    106,210    1412
59,010    106,417    1410
59,000    106,128    1413
58,990    106,422    1409
58,980    106,556    1408
58,970    106,082    1414
58,960    106,137    1413
58,950    106,178    1413
58,940    106,206    1412
58,930    106,431    1409
58,920    106,256    1412
58,910    106,105    1414
58,900    106,256    1412
58,890    106,252    1412
58,880    106,440    1409
58,870    106,450    1409
58,860    106,123    1413
58,850    106,206    1412
58,840    106,265    1412
58,830    106,174    1413
58,820    106,620    1407
58,810    106,100    1414
58,800    106,330    1411
58,790    106,523    1408
58,780    106,242    1412
58,770    106,302    1411
58,760    105,990    1415
58,750    106,128    1413
58,740    106,528    1408
58,730    106,077    1414
58,720    106,514    1408
58,710    106,123    1413
58,700    106,376    1410
58,690    106,394    1410
58,680    106,376    1410
58,670    106,132    1413
58,660    106,593    1407
58,650    106,298    1411
58,640    106,681    1406
58,630    106,500    1408
58,620    106,371    1410
58,610    106,206    1412
58,600    106,399    1410
58,590    106,270    1411
58,580    106,298    1411
58,570    106,224    1412
58,560    106,160    1413
58,550    106,413    1410
58,540    106,477    1409
58,530    106,293    1411
58,520    106,105    1414
58,510    106,362    1410
58,500    106,426    1409
58,490    106,224    1412
58,480    106,183    1413
58,470    106,242    1412
58,460    106,302    1411
58,450    106,408    1410
58,440    106,293    1411
58,430    106,004    1415
58,420    106,298    1411
58,410    106,164    1413
58,400    106,436    1409
58,390    106,192    1413
58,380    106,119    1414
58,370    106,279    1411
58,360    106,187    1413
58,350    106,588    1407
58,340    106,284    1411
58,330    106,256    1412
58,320    106,362    1410
58,310    106,620    1407
58,300    106,242    1412
58,290    106,298    1411
58,280    106,316    1411
58,270    106,164    1413
58,260    106,371    1410
58,250    106,119    1414
58,240    106,408    1410
58,230    106,353    1410
58,220    106,275    1411
58,210    106,450    1409
58,200    106,178    1413
58,190    106,330    1411
58,180    106,422    1409
58,170    106,183    1413
58,160    106,357    1410
58,150    106,146    1413
58,140    106,119    1414
58,130    106,486    1409
58,120    106,311    1411
58,110    106,362    1410
58,100    106,141    1413
58,090    106,201    1412
58,080    106,298    1411
58,070    106,242    1412
58,060    106,385    1410
58,050    106,403    1410
58,040    105,972    1415
58,030    106,357    1410
58,020    106,339    1411
58,010    106,353    1410
58,000    106,403    1410
57,990    106,000    1415
57,980    106,256    1412
57,970    106,426    1409
57,960    106,302    1411
57,950    106,288    1411
57,940    106,018    1415
57,930    106,155    1413
57,920    106,514    1408
57,910    106,215    1412
57,900    106,334    1411
57,890    106,073    1414
57,880    106,224    1412
57,870    106,376    1410
57,860    106,201    1412
57,850    106,298    1411
57,840    106,256    1412
57,830    106,293    1411
57,820    106,505    1408
57,810    106,192    1413
57,800    106,431    1409
57,790    106,344    1411
57,780    106,197    1412
57,770    106,311    1411
57,760    106,151    1413
57,750    106,229    1412
57,740    106,238    1412
57,730    106,316    1411
57,720    106,445    1409
57,710    106,064    1414
57,700    106,009    1415
57,690    106,275    1411
57,680    106,160    1413
57,670    106,334    1411
57,660    106,229    1412
57,650    106,183    1413
57,640    106,344    1411
57,630    106,201    1412
57,620    106,394    1410
57,610    106,468    1409
57,600    106,137    1413
57,590    106,307    1411
57,580    106,197    1412
57,570    106,473    1409
57,560    106,463    1409
57,550    106,036    1415
57,540    106,468    1409
57,530    106,192    1413
57,520    106,362    1410
57,510    106,357    1410
57,500    106,009    1415
57,490    106,445    1409
57,480    106,206    1412
57,470    106,376    1410
57,460    106,371    1410
57,450    106,210    1412
57,440    106,187    1413
57,430    106,514    1408
57,420    106,270    1411
57,410    106,330    1411
57,400    106,224    1412
57,390    106,270    1411
57,380    106,403    1410
57,370    106,192    1413
57,360    106,468    1409
57,350    106,316    1411
57,340    106,385    1410
57,330    106,468    1409
57,320    106,353    1410
57,310    106,403    1410
57,300    106,403    1410
57,290    106,215    1412
57,280    106,588    1407
57,270    106,482    1409
57,260    106,242    1412
57,250    106,408    1410
57,240    106,362    1410
57,230    106,542    1408
57,220    106,514    1408
57,210    106,284    1411
57,200    106,787    1405
57,190    106,583    1407
57,180    106,694    1406
57,170    106,843    1404
57,160    106,505    1408
57,150    106,787    1405
57,140    106,824    1404
57,130    106,852    1404
57,120    107,146    1400
57,110    107,445    1396
57,100    107,629    1394
57,090    107,676    1393
57,080    107,530    1395
57,070    107,239    1399
57,060    109,602    1369
