Z-Pos[um]|R[MOhm]|I[pA]
61,068    106,376    1410
61,058    106,523    1408
61,048    106,265    1412
61,038    106,514    1408
61,028    106,376    1410
61,018    106,160    1413
61,008    106,242    1412
60,998    106,288    1411
60,988    106,348    1410
60,978    106,408    1410
60,968    106,082    1414
60,958    106,468    1409
60,948    106,325    1411
60,938    106,611    1407
60,928    106,681    1406
60,918    106,123    1413
60,908    106,307    1411
60,898    106,261    1412
60,888    106,422    1409
60,878    106,607    1407
60,868    106,091    1414
60,858    106,399    1410
60,848    106,362    1410
60,838    106,403    1410
60,828    106,445    1409
60,818    106,032    1415
60,808    106,454    1409
60,798    106,215    1412
60,788    106,445    1409
60,778    106,394    1410
60,768    106,238    1412
60,758    106,353    1410
60,748    106,473    1409
60,738    106,371    1410
60,728    106,288    1411
60,718    106,183    1413
60,708    106,210    1412
60,698    106,514    1408
60,688    106,210    1412
60,678    106,288    1411
60,668    106,128    1413
60,658    106,265    1412
60,648    106,750    1405
60,638    106,192    1413
60,628    106,607    1407
60,618    106,160    1413
60,608    106,275    1411
60,598    106,486    1409
60,588    106,367    1410
60,578    106,344    1411
60,568    106,114    1414
60,558    106,431    1409
60,548    106,128    1413
60,538    106,137    1413
60,528    106,270    1411
60,518    106,307    1411
60,508    106,537    1408
60,498    106,210    1412
60,488    106,082    1414
60,478    106,321    1411
60,468    106,279    1411
60,458    106,399    1410
60,448    106,408    1410
60,438    106,137    1413
60,428    106,353    1410
60,418    106,718    1406
60,408    106,699    1406
60,398    106,861    1404
60,388    106,954    1402
60,378    107,038    1401
60,368    106,810    1404
60,358    106,242    1412
60,348    106,284    1411
60,338    106,119    1414
60,328    106,463    1409
60,318    106,390    1410
60,308    106,201    1412
60,298    106,279    1411
60,288    106,298    1411
60,278    106,523    1408
60,268    106,339    1411
60,258    106,270    1411
60,248    106,523    1408
60,238    106,178    1413
60,228    106,491    1409
60,218    106,219    1412
60,208    106,032    1415
60,198    106,394    1410
60,188    106,344    1411
60,178    106,436    1409
60,168    106,270    1411
60,158    106,201    1412
60,148    106,339    1411
60,138    106,137    1413
60,128    106,450    1409
60,118    106,496    1409
60,108    106,114    1414
60,098    106,265    1412
60,088    106,454    1409
60,078    106,321    1411
60,068    106,565    1408
60,058    106,128    1413
60,048    106,229    1412
60,038    106,450    1409
60,028    106,261    1412
60,018    106,288    1411
60,008    106,114    1414
59,998    106,413    1410
59,988    106,293    1411
59,978    106,247    1412
59,968    106,321    1411
59,958    106,141    1413
59,948    106,224    1412
59,938    106,468    1409
59,928    106,325    1411
59,918    106,533    1408
59,908    106,187    1413
59,898    106,027    1415
59,888    106,542    1408
59,878    106,348    1410
59,868    106,394    1410
59,858    106,321    1411
59,848    106,128    1413
59,838    106,542    1408
59,828    106,252    1412
59,818    106,357    1410
59,808    106,321    1411
59,798    106,275    1411
59,788    106,477    1409
59,778    106,288    1411
59,768    106,288    1411
59,758    106,390    1410
59,748    106,307    1411
59,738    106,454    1409
59,728    106,385    1410
59,718    106,288    1411
59,708    106,413    1410
59,698    106,224    1412
59,688    106,436    1409
59,678    106,570    1408
59,668    106,151    1413
59,658    106,252    1412
59,648    106,261    1412
59,638    106,440    1409
59,628    106,436    1409
59,618    106,155    1413
59,608    106,183    1413
59,598    106,247    1412
59,588    106,279    1411
59,578    106,482    1409
59,568    106,100    1414
59,558    106,463    1409
59,548    106,311    1411
59,538    106,197    1412
59,528    106,436    1409
59,518    106,164    1413
59,508    106,694    1406
59,498    106,745    1405
59,488    106,403    1410
59,478    106,242    1412
59,468    106,657    1406
59,458    106,574    1407
59,448    106,537    1408
59,438    106,486    1409
59,428    106,096    1414
59,418    106,316    1411
59,408    106,694    1406
59,398    106,311    1411
59,388    106,394    1410
59,378    106,128    1413
59,368    106,288    1411
59,358    106,385    1410
59,348    106,482    1409
59,338    106,367    1410
59,328    106,206    1412
59,318    106,261    1412
59,308    106,367    1410
59,298    106,275    1411
59,288    106,357    1410
59,278    106,151    1413
59,268    106,128    1413
59,258    106,491    1409
59,248    106,229    1412
59,238    106,224    1412
59,228    106,109    1414
59,218    106,330    1411
59,208    106,667    1406
59,198    106,233    1412
59,188    106,339    1411
59,178    106,178    1413
59,168    106,316    1411
59,158    106,583    1407
59,148    106,256    1412
59,138    106,270    1411
59,128    106,284    1411
59,118    106,302    1411
59,108    106,491    1409
59,098    106,413    1410
59,088    106,261    1412
59,078    106,252    1412
59,068    106,224    1412
59,058    106,468    1409
59,048    106,311    1411
59,038    106,242    1412
59,028    106,279    1411
59,018    106,206    1412
59,008    106,514    1408
58,998    106,509    1408
58,988    106,229    1412
58,978    106,556    1408
58,968    106,334    1411
58,958    106,390    1410
58,948    106,275    1411
58,938    106,288    1411
58,928    106,454    1409
58,918    106,565    1408
58,908    106,514    1408
58,898    106,247    1412
58,888    106,523    1408
58,878    106,362    1410
58,868    106,279    1411
58,858    106,394    1410
58,848    106,201    1412
58,838    106,505    1408
58,828    106,417    1410
58,818    106,192    1413
58,808    106,371    1410
58,798    106,137    1413
58,788    106,344    1411
58,778    106,519    1408
58,768    106,187    1413
58,758    106,390    1410
58,748    106,238    1412
58,738    106,215    1412
58,728    106,422    1409
58,718    106,321    1411
58,708    106,390    1410
58,698    106,357    1410
58,688    106,380    1410
58,678    106,602    1407
58,668    106,197    1412
58,658    106,109    1414
58,648    106,293    1411
58,638    106,279    1411
58,628    106,519    1408
58,618    106,307    1411
58,608    106,215    1412
58,598    106,440    1409
58,588    106,321    1411
58,578    106,105    1414
58,568    106,473    1409
58,558    106,616    1407
58,548    106,215    1412
58,538    106,602    1407
58,528    106,307    1411
58,518    106,316    1411
58,508    106,270    1411
58,498    106,399    1410
58,488    106,602    1407
58,478    106,233    1412
58,468    106,399    1410
58,458    106,316    1411
58,448    106,357    1410
58,438    106,519    1408
58,428    106,362    1410
58,418    106,169    1413
58,408    106,362    1410
58,398    106,339    1411
58,388    106,537    1408
58,378    106,477    1409
58,368    106,183    1413
58,358    106,463    1409
58,348    106,224    1412
58,338    106,473    1409
58,328    106,459    1409
58,318    106,151    1413
58,308    106,426    1409
58,298    106,325    1411
58,288    106,431    1409
58,278    106,422    1409
58,268    106,096    1414
58,258    106,533    1408
58,248    106,233    1412
58,238    106,602    1407
58,228    106,528    1408
58,218    106,256    1412
58,208    106,311    1411
58,198    106,491    1409
58,188    106,357    1410
58,178    106,408    1410
58,168    106,486    1409
58,158    106,325    1411
58,148    106,385    1410
58,138    106,380    1410
58,128    106,275    1411
58,118    106,426    1409
58,108    106,394    1410
58,098    106,514    1408
58,088    106,394    1410
58,078    106,109    1414
58,068    106,394    1410
58,058    106,560    1408
58,048    106,431    1409
58,038    106,380    1410
58,028    106,100    1414
58,018    106,417    1410
58,008    106,334    1411
57,998    106,509    1408
57,988    106,256    1412
57,978    106,197    1412
57,968    106,390    1410
57,958    106,302    1411
57,948    106,519    1408
57,938    106,426    1409
57,928    106,105    1414
57,918    106,334    1411
57,908    106,514    1408
57,898    106,413    1410
57,888    106,459    1409
57,878    106,141    1413
57,868    106,210    1412
57,858    106,509    1408
57,848    106,242    1412
57,838    106,385    1410
57,828    106,330    1411
57,818    106,311    1411
57,808    106,509    1408
57,798    106,256    1412
57,788    106,224    1412
57,778    106,242    1412
57,768    106,293    1411
57,758    106,593    1407
57,748    106,325    1411
57,738    106,362    1410
57,728    106,247    1412
57,718    106,325    1411
57,708    106,639    1407
57,698    106,270    1411
57,688    106,187    1413
57,678    106,307    1411
57,668    106,348    1410
57,658    106,560    1408
57,648    106,348    1410
57,638    106,298    1411
57,628    106,616    1407
57,618    106,174    1413
57,608    106,574    1407
57,598    106,445    1409
57,588    106,298    1411
57,578    106,570    1408
57,568    106,252    1412
57,558    106,454    1409
57,548    106,394    1410
57,538    106,252    1412
57,528    106,556    1408
57,518    106,399    1410
57,508    106,579    1407
57,498    106,344    1411
57,488    106,151    1413
57,478    106,616    1407
57,468    106,630    1407
57,458    106,560    1408
57,448    106,431    1409
57,438    106,178    1413
57,428    106,468    1409
57,418    106,620    1407
57,408    106,417    1410
57,398    106,996    1402
57,388    106,796    1405
57,378    106,787    1405
57,368    106,796    1405
57,358    107,071    1401
57,348    106,759    1405
57,338    106,885    1403
57,328    107,020    1402
57,318    107,043    1401
57,308    106,718    1406
57,298    106,764    1405
57,288    106,968    1402
57,278    107,048    1401
57,268    106,871    1404
57,258    106,968    1402
57,248    106,950    1403
57,238    106,685    1406
57,228    106,417    1410
57,218    106,741    1405
57,208    106,463    1409
57,198    106,644    1407
57,188    106,708    1406
57,178    106,542    1408
57,168    106,848    1404
57,158    106,755    1405
57,148    106,871    1404
57,138    107,118    1400
57,128    107,965    1389
57,118    106,880    1403
57,108    107,071    1401
57,098    109,397    1371
57,088    107,141    1400
57,078    109,626    1368
