Z-Pos[um]|R[MOhm]|I[pA]
59,035    106,546    1408
59,025    106,741    1405
59,015    106,408    1410
59,005    106,620    1407
58,995    106,367    1410
58,985    106,265    1412
58,975    106,311    1411
58,965    106,105    1414
58,955    106,477    1409
58,945    106,440    1409
58,935    106,155    1413
58,925    106,422    1409
58,915    106,288    1411
58,905    106,473    1409
58,895    106,588    1407
58,885    106,293    1411
58,875    106,505    1408
58,865    106,293    1411
58,855    106,732    1405
58,845    107,015    1402
58,835    106,625    1407
58,825    106,164    1413
58,815    106,722    1406
58,805    106,667    1406
58,795    106,403    1410
58,785    106,574    1407
58,775    106,769    1405
58,765    106,588    1407
58,755    106,325    1411
58,745    106,519    1408
58,735    106,215    1412
58,725    106,588    1407
58,715    106,334    1411
58,705    106,187    1413
58,695    106,311    1411
58,685    106,238    1412
58,675    106,491    1409
58,665    106,413    1410
58,655    106,036    1415
58,645    106,408    1410
58,635    106,403    1410
58,625    106,454    1409
58,615    106,330    1411
58,605    106,096    1414
58,595    106,403    1410
58,585    106,334    1411
58,575    106,468    1409
58,565    106,380    1410
58,555    106,238    1412
58,545    106,321    1411
58,535    106,551    1408
58,525    106,667    1406
58,515    106,796    1405
58,505    107,001    1402
58,495    106,736    1405
58,485    106,801    1404
58,475    106,704    1406
58,465    106,311    1411
58,455    106,164    1413
58,445    106,334    1411
58,435    106,820    1404
58,425    106,192    1413
58,415    106,422    1409
58,405    106,353    1410
58,395    106,436    1409
58,385    106,463    1409
58,375    106,132    1413
58,365    106,413    1410
58,355    106,491    1409
58,345    106,408    1410
58,335    106,192    1413
58,325    106,187    1413
58,315    106,445    1409
58,305    106,357    1410
58,295    106,408    1410
58,285    106,334    1411
58,275    106,082    1414
58,265    106,339    1411
58,255    106,265    1412
58,245    106,353    1410
58,235    106,275    1411
58,225    106,137    1413
58,215    106,229    1412
58,205    106,519    1408
58,195    106,871    1404
58,185    106,528    1408
58,175    106,676    1406
58,165    106,362    1410
58,155    106,265    1412
58,145    106,403    1410
58,135    106,160    1413
58,125    106,385    1410
58,115    106,357    1410
58,105    106,288    1411
58,095    106,330    1411
58,085    106,192    1413
58,075    106,357    1410
58,065    106,390    1410
58,055    106,197    1412
58,045    106,344    1411
58,035    106,119    1414
58,025    106,229    1412
58,015    106,523    1408
58,005    106,197    1412
57,995    106,371    1410
57,985    106,565    1408
57,975    106,408    1410
57,965    106,440    1409
57,955    106,556    1408
57,945    106,463    1409
57,935    106,880    1403
57,925    106,523    1408
57,915    106,325    1411
57,905    106,247    1412
57,895    106,151    1413
57,885    106,639    1407
57,875    106,183    1413
57,865    106,348    1410
57,855    106,219    1412
57,845    106,426    1409
57,835    106,519    1408
57,825    106,229    1412
57,815    106,376    1410
57,805    106,311    1411
57,795    106,376    1410
57,785    106,634    1407
57,775    106,334    1411
57,765    106,137    1413
57,755    106,385    1410
57,745    106,192    1413
57,735    106,450    1409
57,725    106,463    1409
57,715    106,141    1413
57,705    106,376    1410
57,695    106,141    1413
57,685    106,436    1409
57,675    106,426    1409
57,665    106,022    1415
57,655    106,045    1414
57,645    106,588    1407
57,635    106,206    1412
57,625    106,436    1409
57,615    106,229    1412
57,605    106,164    1413
57,595    106,690    1406
57,585    106,298    1411
57,575    106,380    1410
57,565    106,288    1411
57,555    106,325    1411
57,545    106,611    1407
57,535    106,741    1405
57,525    106,750    1405
57,515    106,491    1409
57,505    106,459    1409
57,495    106,233    1412
57,485    106,408    1410
57,475    106,307    1411
57,465    106,261    1412
57,455    106,570    1408
57,445    106,367    1410
57,435    106,468    1409
57,425    106,298    1411
57,415    106,252    1412
57,405    106,486    1409
57,395    106,436    1409
57,385    106,146    1413
57,375    106,330    1411
57,365    106,151    1413
57,355    106,866    1404
57,345    106,899    1403
57,335    106,681    1406
57,325    106,330    1411
57,315    106,620    1407
57,305    106,270    1411
57,295    106,459    1409
57,285    106,316    1411
57,275    106,141    1413
57,265    106,588    1407
57,255    106,546    1408
57,245    106,565    1408
57,235    106,486    1409
57,225    106,468    1409
57,215    106,792    1405
57,205    106,732    1405
57,195    106,325    1411
57,185    106,593    1407
57,175    106,769    1405
57,165    106,852    1404
57,155    106,583    1407
57,145    106,426    1409
57,135    106,885    1403
57,125    106,745    1405
57,115    106,908    1403
57,105    108,003    1389
57,095    106,722    1406
57,085    107,052    1401
57,075    110,573    1357
57,065    107,511    1395
57,055    124,084    1209
57,045    127,814    1174
57,035    113,165    1326
57,025    120,993    1240
