Z-Pos[um]|R[MOhm]|I[pA]
59,000    106,316    1411
58,990    106,987    1402
58,980    106,533    1408
58,970    106,376    1410
58,960    106,119    1414
58,950    106,801    1404
58,940    106,852    1404
58,930    106,806    1404
58,920    106,546    1408
58,910    106,824    1404
58,900    106,917    1403
58,890    106,759    1405
58,880    106,482    1409
58,870    106,824    1404
58,860    106,722    1406
58,850    106,339    1411
58,840    106,238    1412
58,830    106,146    1413
58,820    106,192    1413
58,810    106,509    1408
58,800    106,183    1413
58,790    106,450    1409
58,780    106,261    1412
58,770    106,160    1413
58,760    106,468    1409
58,750    106,219    1412
58,740    106,445    1409
58,730    106,339    1411
58,720    106,187    1413
58,710    106,514    1408
58,700    106,265    1412
58,690    106,050    1414
58,680    106,334    1411
58,670    106,367    1410
58,660    106,570    1408
58,650    106,394    1410
58,640    106,178    1413
58,630    106,546    1408
58,620    106,316    1411
58,610    106,500    1408
58,600    106,528    1408
58,590    106,229    1412
58,580    106,339    1411
58,570    106,233    1412
58,560    106,431    1409
58,550    106,491    1409
58,540    106,123    1413
58,530    106,440    1409
58,520    106,362    1410
58,510    106,445    1409
58,500    106,403    1410
58,490    106,206    1412
58,480    106,459    1409
58,470    106,422    1409
58,460    106,192    1413
58,450    106,514    1408
58,440    106,325    1411
58,430    106,390    1410
58,420    106,380    1410
58,410    106,298    1411
58,400    106,477    1409
58,390    106,247    1412
58,380    106,399    1410
58,370    106,275    1411
58,360    106,242    1412
58,350    106,413    1410
58,340    106,105    1414
58,330    106,694    1406
58,320    106,376    1410
58,310    106,353    1410
58,300    106,284    1411
58,290    106,261    1412
58,280    106,325    1411
58,270    106,422    1409
58,260    106,242    1412
58,250    106,270    1411
58,240    106,732    1405
58,230    106,505    1408
58,220    106,417    1410
58,210    106,298    1411
58,200    106,279    1411
58,190    106,417    1410
58,180    106,197    1412
58,170    106,459    1409
58,160    106,376    1410
58,150    106,233    1412
58,140    106,371    1410
58,130    106,390    1410
58,120    106,468    1409
58,110    106,496    1409
58,100    106,284    1411
58,090    106,270    1411
58,080    106,408    1410
58,070    106,307    1411
58,060    106,450    1409
58,050    106,183    1413
58,040    106,197    1412
58,030    106,408    1410
58,020    106,247    1412
58,010    106,468    1409
58,000    106,247    1412
57,990    106,233    1412
57,980    106,477    1409
57,970    106,155    1413
57,960    106,307    1411
57,950    106,311    1411
57,940    106,367    1410
57,930    106,570    1408
57,920    106,284    1411
57,910    106,279    1411
57,900    106,256    1412
57,890    106,275    1411
57,880    106,546    1408
57,870    106,206    1412
57,860    106,242    1412
57,850    106,482    1409
57,840    106,132    1413
57,830    106,417    1410
57,820    106,482    1409
57,810    106,256    1412
57,800    106,500    1408
57,790    106,307    1411
57,780    106,454    1409
57,770    106,450    1409
57,760    106,128    1413
57,750    106,339    1411
57,740    106,242    1412
57,730    106,385    1410
57,720    106,588    1407
57,710    106,146    1413
57,700    106,454    1409
57,690    106,256    1412
57,680    106,330    1411
57,670    106,454    1409
57,660    106,036    1415
57,650    106,556    1408
57,640    106,440    1409
57,630    106,625    1407
57,620    106,537    1408
57,610    106,463    1409
57,600    106,620    1407
57,590    106,792    1405
57,580    106,570    1408
57,570    106,311    1411
57,560    106,662    1406
57,550    106,759    1405
57,540    106,694    1406
57,530    106,616    1407
57,520    106,542    1408
57,510    106,509    1408
57,500    106,625    1407
57,490    106,496    1409
57,480    106,183    1413
57,470    106,394    1410
57,460    106,611    1407
57,450    106,376    1410
57,440    106,279    1411
57,430    106,417    1410
57,420    106,713    1406
57,410    106,727    1405
57,400    106,482    1409
57,390    106,505    1408
57,380    106,288    1411
57,370    106,105    1414
57,360    106,634    1407
57,350    106,385    1410
57,340    106,417    1410
57,330    106,533    1408
57,320    106,505    1408
57,310    106,593    1407
57,300    106,390    1410
57,290    106,376    1410
57,280    106,509    1408
57,270    106,390    1410
57,260    106,694    1406
57,250    106,607    1407
57,240    106,362    1410
57,230    106,588    1407
57,220    106,385    1410
57,210    106,597    1407
57,200    106,486    1409
57,190    106,806    1404
57,180    107,006    1402
57,170    106,459    1409
57,160    106,648    1406
57,150    106,357    1410
57,140    106,302    1411
57,130    106,824    1404
57,120    106,616    1407
57,110    106,630    1407
57,100    106,843    1404
57,090    107,394    1397
57,080    106,773    1405
57,070    106,607    1407
57,060    107,742    1392
57,050    108,365    1384
57,040    106,704    1406
57,030    107,220    1399
57,020    122,708    1222
57,010    108,317    1385
57,000    116,056    1292
56,990    117,808    1273
56,980    109,572    1369
