Z-Pos[um]|R[MOhm]|I[pA]
61,066    106,316    1411
61,056    106,927    1403
61,046    106,242    1412
61,036    106,201    1412
61,026    106,496    1409
61,016    106,357    1410
61,006    106,348    1410
60,996    106,330    1411
60,986    106,082    1414
60,976    106,440    1409
60,966    106,279    1411
60,956    106,284    1411
60,946    106,367    1410
60,936    106,169    1413
60,926    106,422    1409
60,916    106,252    1412
60,906    106,091    1414
60,896    106,256    1412
60,886    106,376    1410
60,876    106,334    1411
60,866    106,178    1413
60,856    106,247    1412
60,846    106,385    1410
60,836    106,119    1414
60,826    106,353    1410
60,816    106,376    1410
60,806    106,224    1412
60,796    106,852    1404
60,786    106,796    1405
60,776    106,727    1405
60,766    106,500    1408
60,756    106,857    1404
60,746    107,080    1401
60,736    106,699    1406
60,726    106,611    1407
60,716    106,815    1404
60,706    106,843    1404
60,696    106,662    1406
60,686    106,583    1407
60,676    106,699    1406
60,666    106,644    1407
60,656    106,588    1407
60,646    106,408    1410
60,636    106,334    1411
60,626    106,054    1414
60,616    106,477    1409
60,606    106,394    1410
60,596    106,045    1414
60,586    106,261    1412
60,576    106,394    1410
60,566    106,431    1409
60,556    106,316    1411
60,546    106,302    1411
60,536    106,431    1409
60,526    106,247    1412
60,516    106,348    1410
60,506    106,334    1411
60,496    106,164    1413
60,486    106,293    1411
60,476    106,183    1413
60,466    106,528    1408
60,456    106,482    1409
60,446    106,160    1413
60,436    106,183    1413
60,426    106,284    1411
60,416    106,307    1411
60,406    106,533    1408
60,396    106,169    1413
60,386    106,279    1411
60,376    106,556    1408
60,366    106,132    1413
60,356    106,045    1414
60,346    106,288    1411
60,336    106,417    1410
60,326    106,519    1408
60,316    106,570    1408
60,306    106,091    1414
60,296    106,105    1414
60,286    106,546    1408
60,276    106,206    1412
60,266    106,330    1411
60,256    106,353    1410
60,246    106,132    1413
60,236    106,431    1409
60,226    106,027    1415
60,216    106,275    1411
60,206    106,201    1412
60,196    106,137    1413
60,186    106,454    1409
60,176    106,215    1412
60,166    106,261    1412
60,156    106,334    1411
60,146    106,123    1413
60,136    106,242    1412
60,126    106,408    1410
60,116    106,160    1413
60,106    106,454    1409
60,096    106,192    1413
60,086    106,357    1410
60,076    106,187    1413
60,066    106,109    1414
60,056    106,201    1412
60,046    106,463    1409
60,036    106,597    1407
60,026    106,579    1407
60,016    106,109    1414
60,006    106,390    1410
59,996    106,119    1414
59,986    106,229    1412
59,976    106,275    1411
59,966    106,206    1412
59,956    106,362    1410
59,946    106,187    1413
59,936    106,206    1412
59,926    106,357    1410
59,916    106,238    1412
59,906    106,325    1411
59,896    106,321    1411
59,886    105,954    1416
59,876    106,321    1411
59,866    106,394    1410
59,856    106,385    1410
59,846    106,270    1411
59,836    106,229    1412
59,826    106,454    1409
59,816    106,164    1413
59,806    106,229    1412
59,796    106,302    1411
59,786    106,197    1412
59,776    106,288    1411
59,766    106,261    1412
59,756    107,001    1402
59,746    106,357    1410
59,736    106,330    1411
59,726    106,201    1412
59,716    106,496    1409
59,706    106,160    1413
59,696    106,321    1411
59,686    106,348    1410
59,676    106,201    1412
59,666    106,339    1411
59,656    106,339    1411
59,646    106,169    1413
59,636    106,353    1410
59,626    106,298    1411
59,616    106,302    1411
59,606    106,215    1412
59,596    106,206    1412
59,586    106,399    1410
59,576    106,252    1412
59,566    106,348    1410
59,556    106,311    1411
59,546    106,192    1413
59,536    106,275    1411
59,526    106,238    1412
59,516    106,385    1410
59,506    106,468    1409
59,496    106,123    1413
59,486    106,597    1407
59,476    106,463    1409
59,466    106,261    1412
59,456    106,275    1411
59,446    106,187    1413
59,436    106,307    1411
59,426    106,357    1410
59,416    106,279    1411
59,406    106,357    1410
59,396    106,146    1413
59,386    106,123    1413
59,376    106,509    1408
59,366    106,339    1411
59,356    106,311    1411
59,346    106,293    1411
59,336    106,197    1412
59,326    106,570    1408
59,316    106,215    1412
59,306    106,302    1411
59,296    106,192    1413
59,286    106,169    1413
59,276    106,385    1410
59,266    106,109    1414
59,256    106,242    1412
59,246    106,362    1410
59,236    106,141    1413
59,226    106,426    1409
59,216    106,242    1412
59,206    106,242    1412
59,196    106,348    1410
59,186    106,219    1412
59,176    106,344    1411
59,166    106,141    1413
59,156    106,096    1414
59,146    106,482    1409
59,136    106,210    1412
59,126    106,367    1410
59,116    106,302    1411
59,106    106,178    1413
59,096    106,256    1412
59,086    106,206    1412
59,076    106,473    1409
59,066    106,123    1413
59,056    106,105    1414
59,046    106,270    1411
59,036    106,155    1413
59,026    106,505    1408
59,016    106,459    1409
59,006    106,463    1409
58,996    106,390    1410
58,986    106,625    1407
58,976    106,459    1409
58,966    106,380    1410
58,956    106,579    1407
58,946    106,787    1405
58,936    106,667    1406
58,926    106,602    1407
58,916    106,699    1406
58,906    107,090    1401
58,896    106,704    1406
58,886    106,597    1407
58,876    106,843    1404
58,866    106,653    1406
58,856    106,334    1411
58,846    106,408    1410
58,836    106,422    1409
58,826    106,348    1410
58,816    106,713    1406
58,806    106,482    1409
58,796    106,403    1410
58,786    106,505    1408
58,776    106,667    1406
58,766    106,408    1410
58,756    106,353    1410
58,746    106,639    1407
58,736    106,500    1408
58,726    106,616    1407
58,716    106,546    1408
58,706    106,445    1409
58,696    106,477    1409
58,686    106,690    1406
58,676    106,477    1409
58,666    106,523    1408
58,656    106,597    1407
58,646    106,473    1409
58,636    106,450    1409
58,626    106,325    1411
58,616    106,242    1412
58,606    106,463    1409
58,596    106,311    1411
58,586    106,422    1409
58,576    106,298    1411
58,566    106,091    1414
58,556    106,565    1408
58,546    106,390    1410
58,536    106,164    1413
58,526    106,321    1411
58,516    106,128    1413
58,506    106,238    1412
58,496    106,496    1409
58,486    106,123    1413
58,476    106,486    1409
58,466    106,137    1413
58,456    106,132    1413
58,446    106,275    1411
58,436    106,192    1413
58,426    106,339    1411
58,416    106,174    1413
58,406    106,265    1412
58,396    106,431    1409
58,386    106,316    1411
58,376    106,265    1412
58,366    106,565    1408
58,356    106,436    1409
58,346    106,482    1409
58,336    106,616    1407
58,326    106,371    1410
58,316    106,394    1410
58,306    106,708    1406
58,296    106,588    1407
58,286    106,288    1411
58,276    106,265    1412
58,266    106,298    1411
58,256    106,321    1411
58,246    106,607    1407
58,236    106,013    1415
58,226    106,353    1410
58,216    106,445    1409
58,206    106,408    1410
58,196    106,275    1411
58,186    106,132    1413
58,176    106,787    1405
58,166    106,390    1410
58,156    106,164    1413
58,146    106,367    1410
58,136    106,219    1412
58,126    106,344    1411
58,116    106,408    1410
58,106    106,169    1413
58,096    106,759    1405
58,086    106,293    1411
58,076    106,068    1414
58,066    106,436    1409
58,056    106,242    1412
58,046    106,403    1410
58,036    106,288    1411
58,026    106,197    1412
58,016    106,288    1411
58,006    106,265    1412
57,996    106,201    1412
57,986    106,238    1412
57,976    106,247    1412
57,966    106,491    1409
57,956    106,311    1411
57,946    106,229    1412
57,936    106,560    1408
57,926    106,482    1409
57,916    106,616    1407
57,906    106,505    1408
57,896    106,183    1413
57,886    106,316    1411
57,876    106,500    1408
57,866    106,027    1415
57,856    106,357    1410
57,846    106,155    1413
57,836    106,100    1414
57,826    106,704    1406
57,816    106,459    1409
57,806    106,344    1411
57,796    106,667    1406
57,786    106,556    1408
57,776    106,611    1407
57,766    106,477    1409
57,756    106,275    1411
57,746    106,252    1412
57,736    106,574    1407
57,726    106,224    1412
57,716    106,593    1407
57,706    106,459    1409
57,696    106,773    1405
57,686    106,593    1407
57,676    106,032    1415
57,666    106,440    1409
57,656    106,229    1412
57,646    106,390    1410
57,636    106,551    1408
57,626    106,137    1413
57,616    106,533    1408
57,606    106,275    1411
57,596    106,293    1411
57,586    106,450    1409
57,576    106,252    1412
57,566    106,496    1409
57,556    106,311    1411
57,546    106,334    1411
57,536    106,436    1409
57,526    106,187    1413
57,516    106,463    1409
57,506    106,662    1406
57,496    106,192    1413
57,486    106,390    1410
57,476    106,293    1411
57,466    106,197    1412
57,456    106,620    1407
57,446    106,431    1409
57,436    106,644    1407
57,426    106,325    1411
57,416    106,334    1411
57,406    106,528    1408
57,396    106,417    1410
57,386    106,298    1411
57,376    106,426    1409
57,366    106,334    1411
57,356    106,463    1409
57,346    106,496    1409
57,336    106,178    1413
57,326    106,602    1407
57,316    106,362    1410
57,306    106,607    1407
57,296    106,593    1407
57,286    106,473    1409
57,276    106,982    1402
57,266    107,052    1401
57,256    106,861    1404
57,246    106,265    1412
57,236    106,745    1405
57,226    106,454    1409
57,216    106,477    1409
57,206    106,778    1405
57,196    106,523    1408
57,186    106,708    1406
57,176    106,533    1408
57,166    106,931    1403
57,156    107,062    1401
57,146    106,588    1407
57,136    106,954    1402
57,126    107,136    1400
57,116    155,534    964
57,106    106,945    1403
57,096    110,888    1353
