Z-Pos[um]|R[MOhm]|I[pA]
59,035    106,570    1408
59,025    107,150    1400
59,015    106,380    1410
59,005    106,477    1409
58,995    106,482    1409
58,985    106,704    1406
58,975    106,755    1405
58,965    106,459    1409
58,955    106,528    1408
58,945    106,834    1404
58,935    106,671    1406
58,925    106,339    1411
58,915    106,620    1407
58,905    106,546    1408
58,895    106,917    1403
58,885    106,119    1414
58,875    106,348    1410
58,865    106,450    1409
58,855    106,445    1409
58,845    106,403    1410
58,835    106,284    1411
58,825    106,445    1409
58,815    106,436    1409
58,805    106,537    1408
58,795    106,367    1410
58,785    106,334    1411
58,775    106,815    1404
58,765    107,066    1401
58,755    106,593    1407
58,745    106,164    1413
58,735    106,229    1412
58,725    106,422    1409
58,715    106,616    1407
58,705    106,380    1410
58,695    106,160    1413
58,685    106,556    1408
58,675    106,408    1410
58,665    106,519    1408
58,655    106,247    1412
58,645    106,178    1413
58,635    106,611    1407
58,625    106,648    1406
58,615    106,570    1408
58,605    106,681    1406
58,595    106,431    1409
58,585    106,546    1408
58,575    106,616    1407
58,565    106,482    1409
58,555    106,256    1412
58,545    106,523    1408
58,535    106,151    1413
58,525    106,792    1405
58,515    106,579    1407
58,505    106,671    1406
58,495    106,390    1410
58,485    106,413    1410
58,475    106,219    1412
58,465    106,242    1412
58,455    106,459    1409
58,445    106,353    1410
58,435    106,422    1409
58,425    106,187    1413
58,415    106,146    1413
58,405    106,477    1409
58,395    106,311    1411
58,385    106,422    1409
58,375    106,459    1409
58,365    106,141    1413
58,355    106,311    1411
58,345    106,583    1407
58,335    106,671    1406
58,325    106,713    1406
58,315    106,783    1405
58,305    106,551    1408
58,295    106,871    1404
58,285    106,945    1403
58,275    106,357    1410
58,265    106,454    1409
58,255    106,889    1403
58,245    106,261    1412
58,235    106,261    1412
58,225    106,422    1409
58,215    106,247    1412
58,205    106,151    1413
58,195    106,302    1411
58,185    106,123    1413
58,175    106,593    1407
58,165    106,348    1410
58,155    106,334    1411
58,145    106,242    1412
58,135    106,201    1412
58,125    106,597    1407
58,115    106,238    1412
58,105    106,284    1411
58,095    106,206    1412
58,085    106,357    1410
58,075    106,500    1408
58,065    106,385    1410
58,055    106,201    1412
58,045    106,556    1408
58,035    106,403    1410
58,025    106,537    1408
58,015    106,279    1411
58,005    106,265    1412
57,995    106,330    1411
57,985    106,625    1407
57,975    106,229    1412
57,965    106,252    1412
57,955    106,321    1411
57,945    106,362    1410
57,935    106,523    1408
57,925    106,344    1411
57,915    106,174    1413
57,905    106,279    1411
57,895    106,293    1411
57,885    106,570    1408
57,875    106,270    1411
57,865    106,284    1411
57,855    106,353    1410
57,845    106,183    1413
57,835    106,593    1407
57,825    106,560    1408
57,815    106,242    1412
57,805    106,917    1403
57,795    106,394    1410
57,785    106,247    1412
57,775    106,473    1409
57,765    106,114    1414
57,755    106,440    1409
57,745    106,316    1411
57,735    106,537    1408
57,725    106,704    1406
57,715    106,523    1408
57,705    106,500    1408
57,695    106,509    1408
57,685    106,293    1411
57,675    106,367    1410
57,665    106,422    1409
57,655    106,210    1412
57,645    106,482    1409
57,635    106,394    1410
57,625    106,229    1412
57,615    106,440    1409
57,605    106,256    1412
57,595    106,597    1407
57,585    106,279    1411
57,575    106,279    1411
57,565    106,183    1413
57,555    106,422    1409
57,545    106,275    1411
57,535    106,537    1408
57,525    106,288    1411
57,515    106,288    1411
57,505    106,436    1409
57,495    106,261    1412
57,485    106,380    1410
57,475    106,413    1410
57,465    106,334    1411
57,455    106,445    1409
57,445    106,219    1412
57,435    106,436    1409
57,425    106,422    1409
57,415    106,367    1410
57,405    106,482    1409
57,395    106,426    1409
57,385    106,436    1409
57,375    106,422    1409
57,365    106,242    1412
57,355    107,052    1401
57,345    106,722    1406
57,335    106,385    1410
57,325    106,362    1410
57,315    106,362    1410
57,305    106,533    1408
57,295    106,681    1406
57,285    106,362    1410
57,275    106,546    1408
57,265    106,298    1411
57,255    106,509    1408
57,245    106,671    1406
57,235    106,275    1411
57,225    106,537    1408
57,215    106,473    1409
57,205    106,820    1404
57,195    107,024    1402
57,185    106,718    1406
57,175    106,565    1408
57,165    107,249    1399
57,155    107,309    1398
57,145    106,653    1406
57,135    106,644    1407
57,125    107,291    1398
57,115    106,922    1403
57,105    106,996    1402
57,095    106,708    1406
57,085    106,866    1404
57,075    107,319    1398
57,065    108,283    1385
57,055    110,943    1352
57,045    108,753    1379
57,035    150,349    998
57,025    108,724    1380
57,015    -3060,520    -49
57,005    148,702    1009
