Z-Pos[um]|R[MOhm]|I[pA]
58,980    106,399    1410
58,970    106,657    1406
58,960    106,459    1409
58,950    106,537    1408
58,940    106,732    1405
58,930    106,436    1409
58,920    106,247    1412
58,910    106,667    1406
58,900    106,380    1410
58,890    106,450    1409
58,880    106,491    1409
58,870    106,201    1412
58,860    106,523    1408
58,850    106,500    1408
58,840    106,422    1409
58,830    106,385    1410
58,820    106,261    1412
58,810    106,325    1411
58,800    106,357    1410
58,790    106,473    1409
58,780    106,385    1410
58,770    106,252    1412
58,760    106,357    1410
58,750    106,316    1411
58,740    106,459    1409
58,730    106,371    1410
58,720    106,141    1413
58,710    106,197    1412
58,700    106,445    1409
58,690    106,440    1409
58,680    106,362    1410
58,670    106,132    1413
58,660    106,275    1411
58,650    106,602    1407
58,640    106,611    1407
58,630    106,288    1411
58,620    106,353    1410
58,610    106,229    1412
58,600    106,523    1408
58,590    106,426    1409
58,580    106,298    1411
58,570    106,542    1408
58,560    106,206    1412
58,550    106,339    1411
58,540    106,445    1409
58,530    106,041    1415
58,520    106,491    1409
58,510    106,307    1411
58,500    106,385    1410
58,490    106,321    1411
58,480    106,091    1414
58,470    106,298    1411
58,460    106,339    1411
58,450    106,431    1409
58,440    106,311    1411
58,430    106,215    1412
58,420    106,311    1411
58,410    106,408    1410
58,400    106,151    1413
58,390    106,390    1410
58,380    106,077    1414
58,370    106,183    1413
58,360    106,431    1409
58,350    106,436    1409
58,340    106,261    1412
58,330    106,288    1411
58,320    106,233    1412
58,310    106,445    1409
58,300    106,178    1413
58,290    106,224    1412
58,280    106,247    1412
58,270    106,574    1407
58,260    106,376    1410
58,250    106,330    1411
58,240    106,201    1412
58,230    106,607    1407
58,220    106,713    1406
58,210    106,570    1408
58,200    106,468    1409
58,190    106,574    1407
58,180    106,570    1408
58,170    106,708    1406
58,160    106,454    1409
58,150    106,330    1411
58,140    106,500    1408
58,130    107,029    1401
58,120    106,815    1404
58,110    106,565    1408
58,100    106,380    1410
58,090    106,440    1409
58,080    106,376    1410
58,070    106,334    1411
58,060    106,537    1408
58,050    106,959    1402
58,040    106,579    1407
58,030    106,197    1412
58,020    106,385    1410
58,010    106,229    1412
58,000    106,732    1405
57,990    106,607    1407
57,980    106,229    1412
57,970    106,403    1410
57,960    106,284    1411
57,950    106,367    1410
57,940    106,426    1409
57,930    106,252    1412
57,920    106,523    1408
57,910    106,894    1403
57,900    106,829    1404
57,890    106,579    1407
57,880    106,755    1405
57,870    106,843    1404
57,860    106,704    1406
57,850    106,321    1411
57,840    106,114    1414
57,830    106,316    1411
57,820    106,431    1409
57,810    106,357    1410
57,800    106,284    1411
57,790    106,371    1410
57,780    106,551    1408
57,770    106,468    1409
57,760    106,505    1408
57,750    106,348    1410
57,740    106,215    1412
57,730    106,403    1410
57,720    106,422    1409
57,710    106,426    1409
57,700    106,252    1412
57,690    106,316    1411
57,680    106,459    1409
57,670    106,330    1411
57,660    106,302    1411
57,650    106,210    1412
57,640    106,284    1411
57,630    106,968    1402
57,620    106,741    1405
57,610    106,509    1408
57,600    106,376    1410
57,590    106,376    1410
57,580    106,238    1412
57,570    106,537    1408
57,560    106,542    1408
57,550    106,537    1408
57,540    106,644    1407
57,530    106,500    1408
57,520    106,491    1409
57,510    106,755    1405
57,500    106,556    1408
57,490    106,597    1407
57,480    106,491    1409
57,470    106,183    1413
57,460    106,473    1409
57,450    106,473    1409
57,440    106,344    1411
57,430    106,648    1406
57,420    106,146    1413
57,410    106,284    1411
57,400    106,523    1408
57,390    106,293    1411
57,380    106,399    1410
57,370    106,288    1411
57,360    106,321    1411
57,350    106,551    1408
57,340    106,348    1410
57,330    106,496    1409
57,320    106,275    1411
57,310    106,284    1411
57,300    106,792    1405
57,290    106,408    1410
57,280    106,500    1408
57,270    106,339    1411
57,260    106,426    1409
57,250    106,681    1406
57,240    106,367    1410
57,230    106,367    1410
57,220    106,468    1409
57,210    106,477    1409
57,200    106,634    1407
57,190    106,579    1407
57,180    106,261    1412
57,170    106,625    1407
57,160    106,491    1409
57,150    106,630    1407
57,140    106,727    1405
57,130    106,385    1410
57,120    106,597    1407
57,110    106,708    1406
57,100    106,992    1402
57,090    106,875    1404
57,080    106,671    1406
57,070    106,769    1405
57,060    107,314    1398
57,050    107,789    1392
57,040    107,211    1399
57,030    107,239    1399
57,020    107,955    1389
57,010    108,360    1384
57,000    108,045    1388
56,990    108,479    1383
56,980    114,413    1311
