Z-Pos[um]|R[MOhm]|I[pA]
59,050    106,201    1412
59,040    106,769    1405
59,030    106,385    1410
59,020    106,174    1413
59,010    106,385    1410
59,000    106,284    1411
58,990    106,252    1412
58,980    106,473    1409
58,970    106,178    1413
58,960    106,348    1410
58,950    106,169    1413
58,940    106,279    1411
58,930    106,440    1409
58,920    106,178    1413
58,910    106,233    1412
58,900    106,284    1411
58,890    106,376    1410
58,880    106,473    1409
58,870    106,288    1411
58,860    106,192    1413
58,850    106,348    1410
58,840    106,201    1412
58,830    106,509    1408
58,820    106,279    1411
58,810    106,132    1413
58,800    106,229    1412
58,790    106,073    1414
58,780    106,399    1410
58,770    106,431    1409
58,760    106,206    1412
58,750    106,403    1410
58,740    106,229    1412
58,730    106,311    1411
58,720    106,380    1410
58,710    106,041    1415
58,700    106,330    1411
58,690    106,073    1414
58,680    106,394    1410
58,670    106,403    1410
58,660    106,096    1414
58,650    106,201    1412
58,640    106,367    1410
58,630    106,357    1410
58,620    106,408    1410
58,610    106,022    1415
58,600    106,311    1411
58,590    106,505    1408
58,580    106,215    1412
58,570    106,321    1411
58,560    106,192    1413
58,550    106,187    1413
58,540    106,371    1410
58,530    106,197    1412
58,520    106,265    1412
58,510    106,155    1413
58,500    106,256    1412
58,490    106,454    1409
58,480    106,174    1413
58,470    106,270    1411
58,460    106,238    1412
58,450    106,082    1414
58,440    106,542    1408
58,430    106,463    1409
58,420    106,344    1411
58,410    106,671    1406
58,400    106,362    1410
58,390    106,316    1411
58,380    106,403    1410
58,370    106,096    1414
58,360    106,357    1410
58,350    106,247    1412
58,340    106,321    1411
58,330    106,265    1412
58,320    106,027    1415
58,310    106,261    1412
58,300    106,459    1409
58,290    106,128    1413
58,280    106,353    1410
58,270    106,215    1412
58,260    106,238    1412
58,250    106,473    1409
58,240    106,210    1412
58,230    106,261    1412
58,220    106,050    1414
58,210    106,119    1414
58,200    106,491    1409
58,190    106,321    1411
58,180    106,367    1410
58,170    106,233    1412
58,160    106,114    1414
58,150    106,367    1410
58,140    106,160    1413
58,130    106,224    1412
58,120    106,399    1410
58,110    106,233    1412
58,100    106,445    1409
58,090    106,132    1413
58,080    106,316    1411
58,070    106,247    1412
58,060    106,247    1412
58,050    106,376    1410
58,040    106,132    1413
58,030    106,206    1412
58,020    106,339    1411
58,010    106,247    1412
58,000    106,431    1409
57,990    106,316    1411
57,980    106,013    1415
57,970    106,321    1411
57,960    106,293    1411
57,950    106,325    1411
57,940    106,390    1410
57,930    105,995    1415
57,920    106,454    1409
57,910    106,408    1410
57,900    106,556    1408
57,890    106,091    1414
57,880    106,334    1411
57,870    106,339    1411
57,860    106,242    1412
57,850    106,468    1409
57,840    106,132    1413
57,830    106,353    1410
57,820    106,403    1410
57,810    106,164    1413
57,800    106,413    1410
57,790    106,178    1413
57,780    106,385    1410
57,770    106,288    1411
57,760    106,270    1411
57,750    106,385    1410
57,740    105,981    1415
57,730    106,371    1410
57,720    106,477    1409
57,710    106,197    1412
57,700    106,440    1409
57,690    106,201    1412
57,680    106,284    1411
57,670    106,459    1409
57,660    106,187    1413
57,650    106,279    1411
57,640    106,325    1411
57,630    106,325    1411
57,620    106,570    1408
57,610    106,100    1414
57,600    106,206    1412
57,590    106,357    1410
57,580    106,325    1411
57,570    106,256    1412
57,560    106,344    1411
57,550    106,224    1412
57,540    106,344    1411
57,530    106,371    1410
57,520    106,316    1411
57,510    106,468    1409
57,500    106,242    1412
57,490    106,068    1414
57,480    106,500    1408
57,470    106,252    1412
57,460    106,588    1407
57,450    106,829    1404
57,440    107,001    1402
57,430    106,783    1405
57,420    106,542    1408
57,410    106,968    1402
57,400    106,894    1403
57,390    106,699    1406
57,380    106,792    1405
57,370    106,732    1405
57,360    106,473    1409
57,350    106,321    1411
57,340    106,362    1410
57,330    106,192    1413
57,320    106,593    1407
57,310    106,509    1408
57,300    106,330    1411
57,290    106,602    1407
57,280    106,293    1411
57,270    106,514    1408
57,260    106,542    1408
57,250    106,454    1409
57,240    106,399    1410
57,230    106,399    1410
57,220    106,505    1408
57,210    106,829    1404
57,200    106,450    1409
57,190    106,491    1409
57,180    106,769    1405
57,170    106,607    1407
57,160    106,820    1404
57,150    106,653    1406
57,140    106,551    1408
57,130    107,010    1402
57,120    107,681    1393
57,110    107,272    1398
57,100    106,820    1404
57,090    107,225    1399
57,080    131,359    1142
57,070    107,450    1396
57,060    108,638    1381
57,050    111,892    1341
57,040    119,127    1259
57,030    143,267    1047
57,020    118,541    1265
