Z-Pos[um]|R[MOhm]|I[pA]
58,980    106,542    1408
58,970    106,732    1405
58,960    106,348    1410
58,950    106,288    1411
58,940    106,436    1409
58,930    106,298    1411
58,920    106,288    1411
58,910    106,565    1408
58,900    106,311    1411
58,890    106,357    1410
58,880    106,183    1413
58,870    106,164    1413
58,860    106,468    1409
58,850    106,206    1412
58,840    106,146    1413
58,830    106,064    1414
58,820    106,311    1411
58,810    106,699    1406
58,800    106,579    1407
58,790    106,454    1409
58,780    106,574    1407
58,770    106,307    1411
58,760    106,431    1409
58,750    106,270    1411
58,740    106,215    1412
58,730    106,546    1408
58,720    106,334    1411
58,710    106,293    1411
58,700    106,413    1410
58,690    106,183    1413
58,680    106,275    1411
58,670    106,399    1410
58,660    106,371    1410
58,650    106,422    1409
58,640    106,164    1413
58,630    106,224    1412
58,620    106,593    1407
58,610    106,380    1410
58,600    106,357    1410
58,590    106,169    1413
58,580    106,334    1411
58,570    106,408    1410
58,560    106,399    1410
58,550    106,233    1412
58,540    106,311    1411
58,530    106,242    1412
58,520    106,519    1408
58,510    106,413    1410
58,500    106,288    1411
58,490    106,565    1408
58,480    106,275    1411
58,470    106,247    1412
58,460    106,288    1411
58,450    106,027    1415
58,440    106,436    1409
58,430    106,215    1412
58,420    106,371    1410
58,410    106,288    1411
58,400    106,197    1412
58,390    106,390    1410
58,380    106,436    1409
58,370    106,357    1410
58,360    106,275    1411
58,350    106,187    1413
58,340    106,445    1409
58,330    106,454    1409
58,320    106,528    1408
58,310    106,436    1409
58,300    106,533    1408
58,290    106,533    1408
58,280    106,732    1405
58,270    106,611    1407
58,260    106,445    1409
58,250    106,316    1411
58,240    106,357    1410
58,230    106,367    1410
58,220    106,339    1411
58,210    106,091    1414
58,200    106,482    1409
58,190    106,265    1412
58,180    106,344    1411
58,170    106,509    1408
58,160    106,137    1413
58,150    106,330    1411
58,140    106,454    1409
58,130    106,187    1413
58,120    106,445    1409
58,110    106,087    1414
58,100    106,119    1414
58,090    106,357    1410
58,080    106,279    1411
58,070    106,298    1411
58,060    106,201    1412
58,050    106,137    1413
58,040    106,491    1409
58,030    106,399    1410
58,020    106,450    1409
58,010    106,210    1412
58,000    106,215    1412
57,990    106,473    1409
57,980    106,206    1412
57,970    106,311    1411
57,960    106,302    1411
57,950    106,247    1412
57,940    106,459    1409
57,930    106,073    1414
57,920    106,174    1413
57,910    106,426    1409
57,900    106,357    1410
57,890    106,431    1409
57,880    106,316    1411
57,870    106,233    1412
57,860    106,551    1408
57,850    106,279    1411
57,840    106,473    1409
57,830    106,431    1409
57,820    106,197    1412
57,810    106,380    1410
57,800    106,468    1409
57,790    106,417    1410
57,780    106,316    1411
57,770    106,210    1412
57,760    106,450    1409
57,750    106,307    1411
57,740    106,523    1408
57,730    106,362    1410
57,720    106,183    1413
57,710    106,394    1410
57,700    106,339    1411
57,690    106,344    1411
57,680    106,376    1410
57,670    106,128    1413
57,660    106,275    1411
57,650    106,496    1409
57,640    106,252    1412
57,630    106,261    1412
57,620    106,141    1413
57,610    106,229    1412
57,600    106,537    1408
57,590    106,169    1413
57,580    106,279    1411
57,570    106,486    1409
57,560    106,385    1410
57,550    106,426    1409
57,540    106,270    1411
57,530    106,537    1408
57,520    106,796    1405
57,510    106,838    1404
57,500    106,810    1404
57,490    106,403    1410
57,480    106,128    1413
57,470    106,385    1410
57,460    106,445    1409
57,450    106,293    1411
57,440    106,394    1410
57,430    106,288    1411
57,420    106,413    1410
57,410    106,625    1407
57,400    106,371    1410
57,390    106,376    1410
57,380    106,316    1411
57,370    106,426    1409
57,360    106,537    1408
57,350    106,491    1409
57,340    106,408    1410
57,330    106,229    1412
57,320    106,307    1411
57,310    106,482    1409
57,300    106,491    1409
57,290    106,431    1409
57,280    106,413    1410
57,270    106,256    1412
57,260    106,570    1408
57,250    106,602    1407
57,240    106,265    1412
57,230    106,413    1410
57,220    106,408    1410
57,210    106,616    1407
57,200    106,625    1407
57,190    106,417    1410
57,180    106,570    1408
57,170    106,357    1410
57,160    106,681    1406
57,150    107,057    1401
57,140    106,667    1406
57,130    106,941    1403
57,120    107,043    1401
57,110    106,694    1406
57,100    106,745    1405
57,090    106,653    1406
57,080    106,759    1405
57,070    106,968    1402
57,060    106,727    1405
57,050    107,150    1400
57,040    107,305    1398
57,030    106,899    1403
57,020    107,413    1396
57,010    109,930    1365
57,000    107,860    1391
56,990    117,179    1280
