Z-Pos[um]|R[MOhm]|I[pA]
59,040    106,247    1412
59,030    106,848    1404
59,020    106,459    1409
59,010    106,229    1412
59,000    106,348    1410
58,990    106,256    1412
58,980    106,192    1413
58,970    106,422    1409
58,960    106,593    1407
58,950    106,293    1411
58,940    106,376    1410
58,930    106,123    1413
58,920    106,431    1409
58,910    106,362    1410
58,900    106,247    1412
58,890    106,367    1410
58,880    106,252    1412
58,870    106,390    1410
58,860    106,362    1410
58,850    106,068    1414
58,840    106,394    1410
58,830    106,357    1410
58,820    106,357    1410
58,810    106,311    1411
58,800    106,178    1413
58,790    106,123    1413
58,780    106,459    1409
58,770    106,298    1411
58,760    106,597    1407
58,750    106,727    1405
58,740    106,523    1408
58,730    106,242    1412
58,720    106,422    1409
58,710    106,114    1414
58,700    106,146    1413
58,690    106,426    1409
58,680    106,197    1412
58,670    106,450    1409
58,660    106,151    1413
58,650    106,109    1414
58,640    106,380    1410
58,630    106,183    1413
58,620    106,339    1411
58,610    106,298    1411
58,600    106,169    1413
58,590    106,454    1409
58,580    106,275    1411
58,570    106,339    1411
58,560    106,275    1411
58,550    106,187    1413
58,540    106,422    1409
58,530    106,137    1413
58,520    106,270    1411
58,510    106,307    1411
58,500    106,270    1411
58,490    106,238    1412
58,480    106,367    1410
58,470    106,050    1414
58,460    106,486    1409
58,450    106,187    1413
58,440    106,426    1409
58,430    106,477    1409
58,420    106,201    1412
58,410    106,270    1411
58,400    106,146    1413
58,390    106,321    1411
58,380    106,431    1409
58,370    106,119    1414
58,360    106,353    1410
58,350    106,210    1412
58,340    106,238    1412
58,330    106,325    1411
58,320    105,995    1415
58,310    106,422    1409
58,300    106,224    1412
58,290    106,403    1410
58,280    106,454    1409
58,270    106,146    1413
58,260    106,261    1412
58,250    106,353    1410
58,240    106,201    1412
58,230    106,459    1409
58,220    106,192    1413
58,210    106,151    1413
58,200    106,325    1411
58,190    106,105    1414
58,180    106,353    1410
58,170    106,197    1412
58,160    106,219    1412
58,150    106,422    1409
58,140    106,339    1411
58,130    106,311    1411
58,120    106,252    1412
58,110    106,146    1413
58,100    106,454    1409
58,090    106,265    1412
58,080    106,353    1410
58,070    106,082    1414
58,060    106,183    1413
58,050    106,440    1409
58,040    106,256    1412
58,030    106,261    1412
58,020    106,247    1412
58,010    106,132    1413
58,000    106,463    1409
57,990    106,371    1410
57,980    106,096    1414
57,970    106,371    1410
57,960    106,233    1412
57,950    106,486    1409
57,940    106,403    1410
57,930    106,616    1407
57,920    106,713    1406
57,910    106,987    1402
57,900    106,321    1411
57,890    106,201    1412
57,880    106,325    1411
57,870    106,128    1413
57,860    106,288    1411
57,850    106,256    1412
57,840    106,114    1414
57,830    106,275    1411
57,820    106,229    1412
57,810    106,390    1410
57,800    106,413    1410
57,790    106,087    1414
57,780    106,394    1410
57,770    106,380    1410
57,760    106,362    1410
57,750    106,302    1411
57,740    106,045    1414
57,730    106,265    1412
57,720    106,316    1411
57,710    106,316    1411
57,700    106,417    1410
57,690    106,054    1414
57,680    106,454    1409
57,670    106,505    1408
57,660    106,380    1410
57,650    106,178    1413
57,640    106,114    1414
57,630    106,339    1411
57,620    106,505    1408
57,610    106,321    1411
57,600    106,588    1407
57,590    106,155    1413
57,580    106,164    1413
57,570    106,431    1409
57,560    106,114    1414
57,550    106,321    1411
57,540    106,155    1413
57,530    106,426    1409
57,520    106,408    1410
57,510    106,371    1410
57,500    106,252    1412
57,490    106,174    1413
57,480    106,500    1408
57,470    106,316    1411
57,460    106,164    1413
57,450    106,293    1411
57,440    106,192    1413
57,430    106,385    1410
57,420    106,426    1409
57,410    106,141    1413
57,400    106,385    1410
57,390    106,371    1410
57,380    106,634    1407
57,370    106,745    1405
57,360    106,625    1407
57,350    106,676    1406
57,340    106,931    1403
57,330    106,908    1403
57,320    106,750    1405
57,310    106,302    1411
57,300    106,556    1408
57,290    106,362    1410
57,280    106,727    1405
57,270    106,899    1403
57,260    106,922    1403
57,250    107,384    1397
57,240    106,509    1408
57,230    106,593    1407
57,220    106,390    1410
57,210    106,745    1405
57,200    106,514    1408
57,190    106,491    1409
57,180    106,769    1405
57,170    106,941    1403
57,160    106,875    1404
57,150    106,537    1408
57,140    106,773    1405
57,130    107,244    1399
57,120    107,342    1397
57,110    108,345    1384
57,100    106,950    1403
57,090    106,875    1404
57,080    107,389    1397
57,070    111,481    1346
57,060    107,010    1402
57,050    123,194    1218
57,040    113,730    1319
