Z-Pos[um]|R[MOhm]|I[pA]
59,095    106,192    1413
59,085    107,029    1401
59,075    106,671    1406
59,065    106,454    1409
59,055    106,574    1407
59,045    106,119    1414
59,035    106,454    1409
59,025    106,690    1406
59,015    106,426    1409
59,005    106,657    1406
58,995    106,560    1408
58,985    106,353    1410
58,975    106,509    1408
58,965    106,330    1411
58,955    106,380    1410
58,945    106,413    1410
58,935    106,256    1412
58,925    106,473    1409
58,915    106,533    1408
58,905    106,091    1414
58,895    106,394    1410
58,885    106,353    1410
58,875    106,620    1407
58,865    106,671    1406
58,855    106,178    1413
58,845    106,482    1409
58,835    106,367    1410
58,825    106,399    1410
58,815    106,519    1408
58,805    106,087    1414
58,795    106,551    1408
58,785    106,514    1408
58,775    106,367    1410
58,765    106,722    1406
58,755    106,206    1412
58,745    106,247    1412
58,735    106,463    1409
58,725    106,279    1411
58,715    106,436    1409
58,705    106,206    1412
58,695    106,164    1413
58,685    106,422    1409
58,675    106,500    1408
58,665    106,022    1415
58,655    106,445    1409
58,645    106,169    1413
58,635    106,394    1410
58,625    106,270    1411
58,615    106,096    1414
58,605    106,463    1409
58,595    106,413    1410
58,585    106,417    1410
58,575    106,334    1411
58,565    106,096    1414
58,555    106,284    1411
58,545    106,523    1408
58,535    106,316    1411
58,525    106,486    1409
58,515    106,233    1412
58,505    106,201    1412
58,495    106,523    1408
58,485    106,261    1412
58,475    106,533    1408
58,465    106,146    1413
58,455    106,064    1414
58,445    106,519    1408
58,435    106,334    1411
58,425    106,229    1412
58,415    106,334    1411
58,405    106,219    1412
58,395    106,537    1408
58,385    106,174    1413
58,375    106,325    1411
58,365    106,284    1411
58,355    106,302    1411
58,345    106,500    1408
58,335    106,164    1413
58,325    106,261    1412
58,315    106,325    1411
58,305    106,316    1411
58,295    106,519    1408
58,285    106,454    1409
58,275    106,215    1412
58,265    106,463    1409
58,255    106,293    1411
58,245    106,477    1409
58,235    106,224    1412
58,225    106,307    1411
58,215    106,486    1409
58,205    106,316    1411
58,195    106,450    1409
58,185    106,413    1410
58,175    106,270    1411
58,165    106,348    1410
58,155    106,265    1412
58,145    106,376    1410
58,135    106,607    1407
58,125    106,128    1413
58,115    106,417    1410
58,105    106,399    1410
58,095    106,339    1411
58,085    106,570    1408
58,075    106,192    1413
58,065    106,132    1413
58,055    106,486    1409
58,045    106,265    1412
58,035    106,408    1410
58,025    106,178    1413
58,015    106,183    1413
58,005    106,523    1408
57,995    106,275    1411
57,985    106,477    1409
57,975    106,284    1411
57,965    106,229    1412
57,955    106,477    1409
57,945    106,242    1412
57,935    106,463    1409
57,925    106,256    1412
57,915    106,265    1412
57,905    106,556    1408
57,895    106,247    1412
57,885    106,736    1405
57,875    106,857    1404
57,865    106,676    1406
57,855    106,426    1409
57,845    106,403    1410
57,835    106,169    1413
57,825    106,302    1411
57,815    106,579    1407
57,805    106,210    1412
57,795    106,238    1412
57,785    106,256    1412
57,775    106,316    1411
57,765    106,616    1407
57,755    106,284    1411
57,745    106,353    1410
57,735    106,206    1412
57,725    106,496    1409
57,715    106,681    1406
57,705    106,247    1412
57,695    106,357    1410
57,685    106,316    1411
57,675    106,385    1410
57,665    106,588    1407
57,655    106,422    1409
57,645    106,325    1411
57,635    106,403    1410
57,625    106,265    1412
57,615    106,376    1410
57,605    106,330    1411
57,595    106,160    1413
57,585    106,450    1409
57,575    106,820    1404
57,565    106,417    1410
57,555    106,275    1411
57,545    106,275    1411
57,535    106,546    1408
57,525    106,151    1413
57,515    106,450    1409
57,505    106,169    1413
57,495    106,316    1411
57,485    106,834    1404
57,475    106,298    1411
57,465    106,344    1411
57,455    106,302    1411
57,445    106,639    1407
57,435    106,745    1405
57,425    106,344    1411
57,415    106,265    1412
57,405    106,523    1408
57,395    106,311    1411
57,385    106,459    1409
57,375    106,519    1408
57,365    106,431    1409
57,355    106,477    1409
57,345    106,344    1411
57,335    106,676    1406
57,325    106,533    1408
57,315    106,436    1409
57,305    106,607    1407
57,295    106,611    1407
57,285    106,422    1409
57,275    106,625    1407
57,265    107,001    1402
57,255    106,477    1409
57,245    106,913    1403
57,235    106,500    1408
57,225    106,616    1407
57,215    106,593    1407
57,205    106,639    1407
57,195    106,736    1405
57,185    106,889    1403
57,175    106,759    1405
57,165    107,006    1402
57,155    106,732    1405
57,145    107,662    1393
57,135    109,563    1369
57,125    108,792    1379
57,115    109,587    1369
