Z-Pos[um]|R[MOhm]|I[pA]
59,010    106,625    1407
59,000    106,829    1404
58,990    106,233    1412
58,980    106,233    1412
58,970    106,224    1412
58,960    106,583    1407
58,950    106,505    1408
58,940    106,169    1413
58,930    106,408    1410
58,920    106,302    1411
58,910    106,570    1408
58,900    106,408    1410
58,890    106,445    1409
58,880    106,523    1408
58,870    106,482    1409
58,860    106,229    1412
58,850    106,357    1410
58,840    106,330    1411
58,830    106,151    1413
58,820    106,579    1407
58,810    106,390    1410
58,800    106,247    1412
58,790    106,270    1411
58,780    106,288    1411
58,770    106,542    1408
58,760    106,422    1409
58,750    106,187    1413
58,740    106,325    1411
58,730    106,293    1411
58,720    106,348    1410
58,710    106,486    1409
58,700    106,077    1414
58,690    106,473    1409
58,680    106,270    1411
58,670    106,551    1408
58,660    106,523    1408
58,650    106,233    1412
58,640    106,440    1409
58,630    106,151    1413
58,620    106,426    1409
58,610    106,367    1410
58,600    106,834    1404
58,590    106,736    1405
58,580    106,644    1407
58,570    106,769    1405
58,560    106,403    1410
58,550    106,579    1407
58,540    106,445    1409
58,530    106,151    1413
58,520    106,270    1411
58,510    106,247    1412
58,500    106,215    1412
58,490    106,353    1410
58,480    106,298    1411
58,470    106,321    1411
58,460    106,344    1411
58,450    106,482    1409
58,440    106,431    1409
58,430    106,708    1406
58,420    106,215    1412
58,410    106,620    1407
58,400    107,319    1398
58,390    106,436    1409
58,380    106,224    1412
58,370    106,344    1411
58,360    106,367    1410
58,350    106,450    1409
58,340    106,339    1411
58,330    106,192    1413
58,320    106,417    1410
58,310    106,219    1412
58,300    106,556    1408
58,290    106,454    1409
58,280    105,968    1416
58,270    106,311    1411
58,260    106,348    1410
58,250    106,514    1408
58,240    106,519    1408
58,230    106,252    1412
58,220    106,403    1410
58,210    106,192    1413
58,200    106,417    1410
58,190    106,514    1408
58,180    106,041    1415
58,170    106,339    1411
58,160    106,376    1410
58,150    106,353    1410
58,140    106,403    1410
58,130    106,247    1412
58,120    106,367    1410
58,110    106,500    1408
58,100    106,288    1411
58,090    106,431    1409
58,080    106,206    1412
58,070    106,376    1410
58,060    106,551    1408
58,050    106,325    1411
58,040    106,436    1409
58,030    106,119    1414
58,020    106,174    1413
58,010    106,533    1408
58,000    106,275    1411
57,990    106,371    1410
57,980    106,514    1408
57,970    106,565    1408
57,960    106,718    1406
57,950    106,769    1405
57,940    106,114    1414
57,930    106,307    1411
57,920    106,482    1409
57,910    106,210    1412
57,900    106,293    1411
57,890    106,215    1412
57,880    106,371    1410
57,870    106,560    1408
57,860    106,192    1413
57,850    106,321    1411
57,840    106,293    1411
57,830    106,417    1410
57,820    106,523    1408
57,810    106,247    1412
57,800    106,426    1409
57,790    106,279    1411
57,780    106,307    1411
57,770    106,376    1410
57,760    106,390    1410
57,750    106,390    1410
57,740    106,330    1411
57,730    106,215    1412
57,720    106,463    1409
57,710    106,417    1410
57,700    106,311    1411
57,690    106,533    1408
57,680    106,344    1411
57,670    106,533    1408
57,660    106,298    1411
57,650    106,174    1413
57,640    106,473    1409
57,630    106,376    1410
57,620    106,445    1409
57,610    106,537    1408
57,600    106,417    1410
57,590    106,362    1410
57,580    106,477    1409
57,570    106,265    1412
57,560    106,390    1410
57,550    106,473    1409
57,540    106,238    1412
57,530    106,431    1409
57,520    106,431    1409
57,510    106,657    1406
57,500    106,694    1406
57,490    106,936    1403
57,480    106,834    1404
57,470    106,357    1410
57,460    106,068    1414
57,450    106,556    1408
57,440    106,321    1411
57,430    106,390    1410
57,420    106,197    1412
57,410    106,242    1412
57,400    106,620    1407
57,390    106,348    1410
57,380    106,565    1408
57,370    106,399    1410
57,360    106,514    1408
57,350    106,644    1407
57,340    106,662    1406
57,330    106,473    1409
57,320    106,546    1408
57,310    106,764    1405
57,300    106,385    1410
57,290    106,556    1408
57,280    106,431    1409
57,270    106,371    1410
57,260    106,699    1406
57,250    106,302    1411
57,240    106,486    1409
57,230    106,390    1410
57,220    106,667    1406
57,210    106,644    1407
57,200    106,417    1410
57,190    106,616    1407
57,180    107,029    1401
57,170    106,662    1406
57,160    106,861    1404
57,150    107,150    1400
57,140    106,704    1406
57,130    107,141    1400
57,120    106,778    1405
57,110    106,745    1405
57,100    107,160    1400
57,090    106,871    1404
57,080    106,936    1403
57,070    107,080    1401
57,060    108,145    1387
57,050    107,352    1397
57,040    106,834    1404
57,030    107,823    1391
57,020    114,328    1312
57,010    107,780    1392
57,000    114,365    1312
