Z-Pos[um]|R[MOhm]|I[pA]
59,020    106,616    1407
59,010    106,843    1404
59,000    106,013    1415
58,990    106,311    1411
58,980    106,440    1409
58,970    106,344    1411
58,960    106,866    1404
58,950    106,806    1404
58,940    106,755    1405
58,930    106,348    1410
58,920    106,436    1409
58,910    106,073    1414
58,900    106,496    1409
58,890    106,533    1408
58,880    106,371    1410
58,870    106,265    1412
58,860    106,059    1414
58,850    106,160    1413
58,840    106,454    1409
58,830    106,242    1412
58,820    106,408    1410
58,810    106,119    1414
58,800    106,169    1413
58,790    106,399    1410
58,780    106,284    1411
58,770    106,426    1409
58,760    106,247    1412
58,750    106,197    1412
58,740    106,477    1409
58,730    106,137    1413
58,720    106,197    1412
58,710    106,256    1412
58,700    106,261    1412
58,690    106,597    1407
58,680    106,261    1412
58,670    106,316    1411
58,660    106,201    1412
58,650    106,141    1413
58,640    106,440    1409
58,630    106,279    1411
58,620    106,275    1411
58,610    106,247    1412
58,600    106,123    1413
58,590    106,311    1411
58,580    106,330    1411
58,570    106,146    1413
58,560    106,197    1412
58,550    106,256    1412
58,540    106,565    1408
58,530    106,403    1410
58,520    106,174    1413
58,510    106,376    1410
58,500    106,197    1412
58,490    106,330    1411
58,480    106,344    1411
58,470    106,000    1415
58,460    106,380    1410
58,450    106,344    1411
58,440    106,417    1410
58,430    106,403    1410
58,420    106,114    1414
58,410    106,339    1411
58,400    106,321    1411
58,390    106,413    1410
58,380    106,275    1411
58,370    106,141    1413
58,360    106,261    1412
58,350    106,385    1410
58,340    106,284    1411
58,330    106,537    1408
58,320    106,330    1411
58,310    106,197    1412
58,300    106,399    1410
58,290    106,013    1415
58,280    106,431    1409
58,270    106,151    1413
58,260    106,284    1411
58,250    106,523    1408
58,240    106,233    1412
58,230    106,339    1411
58,220    106,311    1411
58,210    106,141    1413
58,200    106,500    1408
58,190    106,459    1409
58,180    106,178    1413
58,170    106,219    1412
58,160    106,265    1412
58,150    106,574    1407
58,140    106,298    1411
58,130    106,192    1413
58,120    106,279    1411
58,110    106,192    1413
58,100    106,537    1408
58,090    106,450    1409
58,080    106,238    1412
58,070    106,533    1408
58,060    106,087    1414
58,050    106,302    1411
58,040    106,417    1410
58,030    106,114    1414
58,020    106,436    1409
58,010    106,174    1413
58,000    106,311    1411
57,990    106,330    1411
57,980    106,041    1415
57,970    106,279    1411
57,960    106,307    1411
57,950    106,261    1412
57,940    106,422    1409
57,930    106,077    1414
57,920    106,261    1412
57,910    106,385    1410
57,900    106,077    1414
57,890    106,376    1410
57,880    106,123    1413
57,870    106,431    1409
57,860    106,385    1410
57,850    106,275    1411
57,840    106,353    1410
57,830    106,073    1414
57,820    106,114    1414
57,810    106,533    1408
57,800    106,077    1414
57,790    106,579    1407
57,780    106,270    1411
57,770    106,334    1411
57,760    106,523    1408
57,750    106,064    1414
57,740    106,128    1413
57,730    106,348    1410
57,720    106,528    1408
57,710    106,454    1409
57,700    105,981    1415
57,690    106,491    1409
57,680    106,894    1403
57,670    106,528    1408
57,660    106,736    1405
57,650    106,801    1404
57,640    106,783    1405
57,630    106,579    1407
57,620    106,486    1409
57,610    106,973    1402
57,600    106,857    1404
57,590    106,500    1408
57,580    106,390    1410
57,570    106,151    1413
57,560    106,192    1413
57,550    106,509    1408
57,540    106,155    1413
57,530    106,390    1410
57,520    106,339    1411
57,510    106,463    1409
57,500    106,403    1410
57,490    106,238    1412
57,480    106,413    1410
57,470    106,210    1412
57,460    106,215    1412
57,450    106,491    1409
57,440    106,298    1411
57,430    106,187    1413
57,420    106,302    1411
57,410    106,459    1409
57,400    106,463    1409
57,390    106,330    1411
57,380    106,270    1411
57,370    106,362    1410
57,360    106,533    1408
57,350    106,371    1410
57,340    106,334    1411
57,330    106,270    1411
57,320    106,413    1410
57,310    106,542    1408
57,300    106,376    1410
57,290    106,385    1410
57,280    106,588    1407
57,270    106,620    1407
57,260    106,880    1403
57,250    106,611    1407
57,240    106,630    1407
57,230    106,829    1404
57,220    106,787    1405
57,210    106,657    1406
57,200    106,917    1403
57,190    106,773    1405
57,180    106,579    1407
57,170    106,992    1402
57,160    107,253    1399
57,150    106,927    1403
57,140    106,936    1403
57,130    107,502    1395
57,120    107,399    1397
57,110    107,024    1402
57,100    107,455    1396
57,090    108,931    1377
57,080    106,796    1405
57,070    113,994    1316
57,060    108,917    1377
57,050    116,215    1291
57,040    111,058    1351
