Z-Pos[um]|R[MOhm]|I[pA]
59,080    105,972    1415
59,070    106,620    1407
59,060    106,261    1412
59,050    106,215    1412
59,040    106,348    1410
59,030    106,206    1412
59,020    105,977    1415
59,010    106,376    1410
59,000    106,187    1413
58,990    106,288    1411
58,980    106,357    1410
58,970    106,013    1415
58,960    106,468    1409
58,950    106,219    1412
58,940    106,376    1410
58,930    106,302    1411
58,920    106,151    1413
58,910    106,174    1413
58,900    106,247    1412
58,890    106,348    1410
58,880    106,468    1409
58,870    106,123    1413
58,860    106,293    1411
58,850    106,247    1412
58,840    106,288    1411
58,830    106,390    1410
58,820    106,141    1413
58,810    106,408    1410
58,800    106,275    1411
58,790    106,151    1413
58,780    106,440    1409
58,770    106,087    1414
58,760    106,160    1413
58,750    106,408    1410
58,740    106,192    1413
58,730    106,087    1414
58,720    106,417    1410
58,710    105,990    1415
58,700    106,339    1411
58,690    106,482    1409
58,680    106,000    1415
58,670    106,593    1407
58,660    106,667    1406
58,650    106,321    1411
58,640    106,210    1412
58,630    106,385    1410
58,620    106,146    1413
58,610    106,551    1408
58,600    106,344    1411
58,590    105,885    1417
58,580    106,634    1407
58,570    106,417    1410
58,560    106,219    1412
58,550    106,454    1409
58,540    106,013    1415
58,530    106,151    1413
58,520    106,639    1407
58,510    106,403    1410
58,500    106,348    1410
58,490    106,408    1410
58,480    106,496    1409
58,470    106,431    1409
58,460    106,616    1407
58,450    106,473    1409
58,440    106,440    1409
58,430    106,607    1407
58,420    106,265    1412
58,410    106,119    1414
58,400    106,630    1407
58,390    106,477    1409
58,380    106,298    1411
58,370    106,357    1410
58,360    106,000    1415
58,350    106,367    1410
58,340    106,210    1412
58,330    106,174    1413
58,320    106,307    1411
58,310    106,114    1414
58,300    106,500    1408
58,290    106,247    1412
58,280    106,164    1413
58,270    106,219    1412
58,260    105,895    1417
58,250    106,187    1413
58,240    106,247    1412
58,230    105,990    1415
58,220    106,137    1413
58,210    106,082    1414
58,200    106,334    1411
58,190    106,477    1409
58,180    106,174    1413
58,170    106,445    1409
58,160    106,077    1414
58,150    106,036    1415
58,140    106,394    1410
58,130    106,242    1412
58,120    106,261    1412
58,110    106,344    1411
58,100    106,022    1415
58,090    106,325    1411
58,080    106,114    1414
58,070    106,247    1412
58,060    106,325    1411
58,050    106,247    1412
58,040    106,394    1410
58,030    106,174    1413
58,020    106,141    1413
58,010    106,311    1411
58,000    106,252    1412
57,990    106,334    1411
57,980    106,279    1411
57,970    106,155    1413
57,960    106,445    1409
57,950    106,137    1413
57,940    106,330    1411
57,930    106,454    1409
57,920    106,096    1414
57,910    106,256    1412
57,900    106,206    1412
57,890    106,348    1410
57,880    106,602    1407
57,870    106,073    1414
57,860    106,348    1410
57,850    106,178    1413
57,840    106,298    1411
57,830    106,316    1411
57,820    106,009    1415
57,810    106,353    1410
57,800    106,436    1409
57,790    106,316    1411
57,780    106,426    1409
57,770    106,064    1414
57,760    106,279    1411
57,750    106,533    1408
57,740    106,210    1412
57,730    106,459    1409
57,720    106,091    1414
57,710    106,252    1412
57,700    106,908    1403
57,690    106,123    1413
57,680    106,371    1410
57,670    106,178    1413
57,660    106,155    1413
57,650    106,426    1409
57,640    106,178    1413
57,630    106,077    1414
57,620    106,302    1411
57,610    106,408    1410
57,600    106,514    1408
57,590    106,275    1411
57,580    106,137    1413
57,570    106,265    1412
57,560    106,160    1413
57,550    106,399    1410
57,540    106,422    1409
57,530    106,105    1414
57,520    106,422    1409
57,510    106,334    1411
57,500    106,380    1410
57,490    106,459    1409
57,480    106,238    1412
57,470    106,413    1410
57,460    106,385    1410
57,450    106,353    1410
57,440    106,325    1411
57,430    106,123    1413
57,420    106,408    1410
57,410    106,408    1410
57,400    106,486    1409
57,390    106,252    1412
57,380    106,242    1412
57,370    106,357    1410
57,360    106,311    1411
57,350    106,403    1410
57,340    106,500    1408
57,330    106,311    1411
57,320    106,316    1411
57,310    106,496    1409
57,300    106,537    1408
57,290    106,422    1409
57,280    106,357    1410
57,270    106,750    1405
57,260    107,015    1402
57,250    106,945    1403
57,240    106,704    1406
57,230    107,052    1401
57,220    107,366    1397
57,210    107,048    1401
57,200    106,885    1403
57,190    106,848    1404
57,180    107,052    1401
57,170    106,505    1408
57,160    106,787    1405
57,150    107,076    1401
57,140    107,399    1397
57,130    106,732    1405
57,120    106,732    1405
57,110    107,931    1390
57,100    107,314    1398
57,090    107,220    1399
57,080    110,394    1359
57,070    108,792    1379
57,060    496,585    302
