Z-Pos[um]|R[MOhm]|I[pA]
59,095    106,468    1409
59,085    106,755    1405
59,075    106,408    1410
59,065    106,279    1411
59,055    106,197    1412
59,045    106,426    1409
59,035    106,413    1410
59,025    106,288    1411
59,015    106,380    1410
59,005    106,242    1412
58,995    106,491    1409
58,985    106,279    1411
58,975    106,252    1412
58,965    106,417    1410
58,955    106,146    1413
58,945    106,551    1408
58,935    106,514    1408
58,925    106,178    1413
58,915    106,454    1409
58,905    106,330    1411
58,895    106,477    1409
58,885    106,496    1409
58,875    106,041    1415
58,865    106,477    1409
58,855    106,219    1412
58,845    106,325    1411
58,835    106,431    1409
58,825    106,394    1410
58,815    106,681    1406
58,805    107,043    1401
58,795    106,426    1409
58,785    106,100    1414
58,775    106,219    1412
58,765    106,357    1410
58,755    106,426    1409
58,745    106,450    1409
58,735    106,091    1414
58,725    106,422    1409
58,715    106,321    1411
58,705    106,450    1409
58,695    106,224    1412
58,685    106,132    1413
58,675    106,371    1410
58,665    106,399    1410
58,655    106,450    1409
58,645    106,344    1411
58,635    106,187    1413
58,625    106,256    1412
58,615    106,316    1411
58,605    106,408    1410
58,595    106,367    1410
58,585    106,206    1412
58,575    106,261    1412
58,565    106,321    1411
58,555    106,367    1410
58,545    106,293    1411
58,535    106,288    1411
58,525    106,151    1413
58,515    106,463    1409
58,505    106,399    1410
58,495    106,247    1412
58,485    106,192    1413
58,475    106,183    1413
58,465    106,505    1408
58,455    106,247    1412
58,445    106,206    1412
58,435    106,041    1415
58,425    106,330    1411
58,415    106,574    1407
58,405    106,265    1412
58,395    106,491    1409
58,385    106,270    1411
58,375    106,408    1410
58,365    106,403    1410
58,355    106,256    1412
58,345    106,385    1410
58,335    106,261    1412
58,325    106,403    1410
58,315    106,450    1409
58,305    106,284    1411
58,295    106,445    1409
58,285    106,229    1412
58,275    106,160    1413
58,265    106,468    1409
58,255    106,334    1411
58,245    106,087    1414
58,235    106,219    1412
58,225    106,838    1404
58,215    106,169    1413
58,205    106,450    1409
58,195    106,164    1413
58,185    106,422    1409
58,175    106,607    1407
58,165    106,334    1411
58,155    106,450    1409
58,145    106,174    1413
58,135    106,261    1412
58,125    106,417    1410
58,115    106,417    1410
58,105    106,215    1412
58,095    106,279    1411
58,085    106,445    1409
58,075    106,505    1408
58,065    106,284    1411
58,055    106,293    1411
58,045    106,380    1410
58,035    106,261    1412
58,025    106,533    1408
58,015    106,450    1409
58,005    106,238    1412
57,995    106,376    1410
57,985    106,256    1412
57,975    106,570    1408
57,965    106,459    1409
57,955    106,160    1413
57,945    106,482    1409
57,935    106,206    1412
57,925    106,533    1408
57,915    106,413    1410
57,905    106,307    1411
57,895    106,422    1409
57,885    106,616    1407
57,875    106,704    1406
57,865    106,796    1405
57,855    106,583    1407
57,845    106,745    1405
57,835    106,704    1406
57,825    106,936    1403
57,815    107,034    1401
57,805    106,848    1404
57,795    106,889    1403
57,785    106,796    1405
57,775    106,745    1405
57,765    107,099    1401
57,755    106,284    1411
57,745    106,334    1411
57,735    106,183    1413
57,725    106,537    1408
57,715    106,667    1406
57,705    106,523    1408
57,695    106,436    1409
57,685    106,546    1408
57,675    106,307    1411
57,665    106,380    1410
57,655    106,422    1409
57,645    106,311    1411
57,635    106,307    1411
57,625    106,459    1409
57,615    106,376    1410
57,605    106,440    1409
57,595    106,210    1412
57,585    106,339    1411
57,575    106,463    1409
57,565    106,385    1410
57,555    106,408    1410
57,545    106,325    1411
57,535    106,201    1412
57,525    106,570    1408
57,515    106,293    1411
57,505    106,307    1411
57,495    106,210    1412
57,485    106,270    1411
57,475    106,667    1406
57,465    106,334    1411
57,455    106,440    1409
57,445    106,357    1410
57,435    106,169    1413
57,425    106,745    1405
57,415    106,676    1406
57,405    106,491    1409
57,395    106,801    1404
57,385    106,783    1405
57,375    106,657    1406
57,365    106,639    1407
57,355    106,574    1407
57,345    106,537    1408
57,335    106,885    1403
57,325    106,533    1408
57,315    106,178    1413
57,305    106,537    1408
57,295    106,551    1408
57,285    106,685    1406
57,275    106,509    1408
57,265    106,357    1410
57,255    106,801    1404
57,245    106,551    1408
57,235    106,755    1405
57,225    106,579    1407
57,215    106,279    1411
57,205    106,838    1404
57,195    106,759    1405
57,185    106,889    1403
57,175    106,787    1405
57,165    107,879    1390
57,155    107,258    1398
57,145    106,857    1404
57,135    106,968    1402
57,125    107,352    1397
57,115    107,370    1397
57,105    109,033    1376
57,095    108,412    1384
57,085    107,686    1393
57,075    115,337    1301
