Z-Pos[um]|R[MOhm]|I[pA]
59,038    106,316    1411
59,028    106,630    1407
59,018    106,570    1408
59,008    106,330    1411
58,998    106,082    1414
58,988    106,348    1410
58,978    106,436    1409
58,968    106,486    1409
58,958    106,468    1409
58,948    106,174    1413
58,938    106,537    1408
58,928    106,279    1411
58,918    106,509    1408
58,908    106,279    1411
58,898    106,206    1412
58,888    106,463    1409
58,878    106,620    1407
58,868    106,413    1410
58,858    106,302    1411
58,848    106,146    1413
58,838    106,450    1409
58,828    106,403    1410
58,818    106,436    1409
58,808    106,348    1410
58,798    106,187    1413
58,788    106,252    1412
58,778    106,252    1412
58,768    106,741    1405
58,758    106,815    1404
58,748    106,875    1404
58,738    106,968    1402
58,728    106,732    1405
58,718    106,848    1404
58,708    106,820    1404
58,698    106,773    1405
58,688    106,713    1406
58,678    106,560    1408
58,668    106,293    1411
58,658    106,252    1412
58,648    106,321    1411
58,638    106,307    1411
58,628    106,160    1413
58,618    106,367    1410
58,608    106,197    1412
58,598    106,588    1407
58,588    106,293    1411
58,578    106,183    1413
58,568    106,778    1405
58,558    106,505    1408
58,548    106,426    1409
58,538    106,174    1413
58,528    106,491    1409
58,518    106,298    1411
58,508    106,463    1409
58,498    106,523    1408
58,488    106,109    1414
58,478    106,344    1411
58,468    106,431    1409
58,458    106,769    1405
58,448    106,417    1410
58,438    106,311    1411
58,428    106,533    1408
58,418    106,519    1408
58,408    106,293    1411
58,398    106,436    1409
58,388    106,238    1412
58,378    106,265    1412
58,368    106,560    1408
58,358    106,403    1410
58,348    106,330    1411
58,338    106,436    1409
58,328    106,344    1411
58,318    106,459    1409
58,308    106,371    1410
58,298    106,330    1411
58,288    106,413    1410
58,278    106,583    1407
58,268    106,344    1411
58,258    106,440    1409
58,248    106,109    1414
58,238    106,348    1410
58,228    106,745    1405
58,218    106,560    1408
58,208    106,509    1408
58,198    106,399    1410
58,188    106,413    1410
58,178    106,505    1408
58,168    106,380    1410
58,158    105,990    1415
58,148    106,426    1409
58,138    106,408    1410
58,128    106,380    1410
58,118    106,325    1411
58,108    106,059    1414
58,098    106,334    1411
58,088    106,482    1409
58,078    106,344    1411
58,068    106,344    1411
58,058    106,146    1413
58,048    106,367    1410
58,038    106,422    1409
58,028    106,500    1408
58,018    106,155    1413
58,008    106,256    1412
57,998    106,270    1411
57,988    106,486    1409
57,978    106,408    1410
57,968    106,546    1408
57,958    106,201    1412
57,948    106,151    1413
57,938    106,417    1410
57,928    106,114    1414
57,918    106,399    1410
57,908    106,146    1413
57,898    106,100    1414
57,888    106,500    1408
57,878    106,229    1412
57,868    106,436    1409
57,858    106,769    1405
57,848    106,560    1408
57,838    106,519    1408
57,828    106,450    1409
57,818    106,233    1412
57,808    106,261    1412
57,798    106,376    1410
57,788    106,367    1410
57,778    106,440    1409
57,768    106,238    1412
57,758    106,325    1411
57,748    106,468    1409
57,738    106,307    1411
57,728    106,417    1410
57,718    106,123    1413
57,708    106,265    1412
57,698    106,399    1410
57,688    106,128    1413
57,678    106,380    1410
57,668    106,302    1411
57,658    106,348    1410
57,648    106,551    1408
57,638    106,311    1411
57,628    106,293    1411
57,618    106,215    1412
57,608    106,385    1410
57,598    106,639    1407
57,588    106,394    1410
57,578    106,197    1412
57,568    106,325    1411
57,558    106,436    1409
57,548    106,634    1407
57,538    106,270    1411
57,528    106,160    1413
57,518    106,362    1410
57,508    106,307    1411
57,498    106,477    1409
57,488    106,597    1407
57,478    106,206    1412
57,468    106,353    1410
57,458    106,362    1410
57,448    106,657    1406
57,438    106,390    1410
57,428    106,316    1411
57,418    106,413    1410
57,408    106,639    1407
57,398    106,987    1402
57,388    106,973    1402
57,378    106,931    1403
57,368    106,339    1411
57,358    106,588    1407
57,348    106,445    1409
57,338    106,321    1411
57,328    106,500    1408
57,318    106,265    1412
57,308    106,694    1406
57,298    106,588    1407
57,288    106,344    1411
57,278    106,648    1406
57,268    106,417    1410
57,258    106,440    1409
57,248    106,551    1408
57,238    106,533    1408
57,228    106,546    1408
57,218    106,671    1406
57,208    106,556    1408
57,198    106,371    1410
57,188    106,509    1408
57,178    106,574    1407
57,168    106,959    1402
57,158    106,778    1405
57,148    106,473    1409
57,138    106,801    1404
57,128    106,908    1403
57,118    107,052    1401
57,108    107,202    1399
57,098    107,267    1398
57,088    107,502    1395
57,078    107,338    1397
57,068    107,667    1393
57,058    109,309    1372
57,048    108,174    1387
57,038    118,416    1267
