Z-Pos[um]|R[MOhm]|I[pA]
59,070    106,004    1415
59,060    106,546    1408
59,050    106,477    1409
59,040    106,233    1412
59,030    106,252    1412
59,020    106,160    1413
59,010    106,100    1414
59,000    106,704    1406
58,990    106,293    1411
58,980    106,252    1412
58,970    106,574    1407
58,960    106,307    1411
58,950    106,588    1407
58,940    106,565    1408
58,930    106,100    1414
58,920    106,151    1413
58,910    106,519    1408
58,900    106,169    1413
58,890    106,105    1414
58,880    106,146    1413
58,870    106,275    1411
58,860    106,625    1407
58,850    106,197    1412
58,840    106,229    1412
58,830    106,109    1414
58,820    106,353    1410
58,810    106,486    1409
58,800    106,348    1410
58,790    106,192    1413
58,780    106,514    1408
58,770    106,164    1413
58,760    106,201    1412
58,750    106,137    1413
58,740    105,945    1416
58,730    106,371    1410
58,720    106,238    1412
58,710    107,333    1398
58,700    106,431    1409
58,690    106,496    1409
58,680    106,426    1409
58,670    106,270    1411
58,660    106,344    1411
58,650    106,123    1413
58,640    106,183    1413
58,630    106,408    1410
58,620    106,128    1413
58,610    106,252    1412
58,600    106,256    1412
58,590    106,197    1412
58,580    106,574    1407
58,570    106,288    1411
58,560    106,334    1411
58,550    106,242    1412
58,540    106,293    1411
58,530    106,473    1409
58,520    106,210    1412
58,510    106,178    1413
58,500    106,206    1412
58,490    106,114    1414
58,480    106,394    1410
58,470    106,206    1412
58,460    106,100    1414
58,450    106,247    1412
58,440    106,288    1411
58,430    106,293    1411
58,420    106,459    1409
58,410    106,041    1415
58,400    106,206    1412
58,390    106,500    1408
58,380    106,238    1412
58,370    106,160    1413
58,360    106,164    1413
58,350    106,279    1411
58,340    106,468    1409
58,330    106,082    1414
58,320    106,109    1414
58,310    106,155    1413
58,300    106,445    1409
58,290    106,671    1406
58,280    106,454    1409
58,270    106,132    1413
58,260    106,417    1410
58,250    106,054    1414
58,240    106,357    1410
58,230    106,426    1409
58,220    105,968    1416
58,210    106,390    1410
58,200    106,160    1413
58,190    106,348    1410
58,180    106,265    1412
58,170    105,899    1416
58,160    106,403    1410
58,150    106,477    1409
58,140    106,284    1411
58,130    106,334    1411
58,120    106,091    1414
58,110    106,316    1411
58,100    106,371    1410
58,090    106,229    1412
58,080    106,505    1408
58,070    106,174    1413
58,060    106,242    1412
58,050    106,473    1409
58,040    106,242    1412
58,030    106,247    1412
58,020    106,045    1414
58,010    106,233    1412
58,000    106,537    1408
57,990    106,256    1412
57,980    106,311    1411
57,970    106,155    1413
57,960    106,164    1413
57,950    106,482    1409
57,940    106,077    1414
57,930    106,311    1411
57,920    106,210    1412
57,910    106,192    1413
57,900    106,514    1408
57,890    106,252    1412
57,880    106,215    1412
57,870    106,362    1410
57,860    106,233    1412
57,850    106,486    1409
57,840    106,192    1413
57,830    106,279    1411
57,820    106,394    1410
57,810    106,325    1411
57,800    106,413    1410
57,790    106,316    1411
57,780    106,233    1412
57,770    106,436    1409
57,760    106,238    1412
57,750    106,321    1411
57,740    106,247    1412
57,730    106,242    1412
57,720    106,413    1410
57,710    106,174    1413
57,700    106,473    1409
57,690    106,422    1409
57,680    106,068    1414
57,670    106,390    1410
57,660    106,219    1412
57,650    106,509    1408
57,640    106,634    1407
57,630    106,210    1412
57,620    106,316    1411
57,610    106,330    1411
57,600    106,371    1410
57,590    106,445    1409
57,580    106,096    1414
57,570    107,057    1401
57,560    106,685    1406
57,550    106,339    1411
57,540    106,325    1411
57,530    106,298    1411
57,520    106,339    1411
57,510    106,128    1413
57,500    106,247    1412
57,490    106,279    1411
57,480    106,206    1412
57,470    106,426    1409
57,460    106,500    1408
57,450    106,164    1413
57,440    106,399    1410
57,430    106,362    1410
57,420    106,417    1410
57,410    106,616    1407
57,400    106,105    1414
57,390    106,445    1409
57,380    106,233    1412
57,370    106,454    1409
57,360    106,727    1405
57,350    106,293    1411
57,340    106,565    1408
57,330    106,399    1410
57,320    106,422    1409
57,310    106,399    1410
57,300    106,091    1414
57,290    106,662    1406
57,280    106,270    1411
57,270    106,348    1410
57,260    106,583    1407
57,250    106,376    1410
57,240    106,565    1408
57,230    106,385    1410
57,220    106,685    1406
57,210    106,783    1405
57,200    106,394    1410
57,190    106,570    1408
57,180    107,038    1401
57,170    107,146    1400
57,160    106,593    1407
57,150    106,468    1409
57,140    107,766    1392
57,130    107,922    1390
57,120    106,820    1404
57,110    107,389    1397
57,100    111,113    1350
57,090    107,841    1391
57,080    112,137    1338
57,070    108,036    1388
57,060    141,812    1058
