Z-Pos[um]|R[MOhm]|I[pA]
59,020    106,722    1406
59,010    106,861    1404
59,000    106,265    1412
58,990    106,482    1409
58,980    106,399    1410
58,970    106,473    1409
58,960    106,293    1411
58,950    106,284    1411
58,940    106,551    1408
58,930    106,344    1411
58,920    106,459    1409
58,910    106,348    1410
58,900    106,164    1413
58,890    106,509    1408
58,880    106,408    1410
58,870    106,477    1409
58,860    106,334    1411
58,850    106,178    1413
58,840    106,417    1410
58,830    106,371    1410
58,820    106,560    1408
58,810    106,367    1410
58,800    106,178    1413
58,790    106,357    1410
58,780    106,307    1411
58,770    106,334    1411
58,760    106,463    1409
58,750    106,436    1409
58,740    106,968    1402
58,730    106,871    1404
58,720    106,537    1408
58,710    106,288    1411
58,700    106,119    1414
58,690    106,454    1409
58,680    106,330    1411
58,670    106,298    1411
58,660    106,105    1414
58,650    106,229    1412
58,640    106,376    1410
58,630    106,183    1413
58,620    106,210    1412
58,610    106,270    1411
58,600    106,247    1412
58,590    106,500    1408
58,580    106,169    1413
58,570    106,311    1411
58,560    106,302    1411
58,550    106,436    1409
58,540    106,422    1409
58,530    106,357    1410
58,520    106,468    1409
58,510    106,224    1412
58,500    106,275    1411
58,490    106,509    1408
58,480    106,620    1407
58,470    106,422    1409
58,460    106,644    1407
58,450    106,486    1409
58,440    106,648    1406
58,430    106,676    1406
58,420    106,450    1409
58,410    106,630    1407
58,400    106,773    1405
58,390    106,597    1407
58,380    106,128    1413
58,370    106,482    1409
58,360    106,270    1411
58,350    106,399    1410
58,340    106,523    1408
58,330    106,160    1413
58,320    106,371    1410
58,310    106,293    1411
58,300    106,252    1412
58,290    106,440    1409
58,280    106,054    1414
58,270    106,542    1408
58,260    106,376    1410
58,250    106,238    1412
58,240    106,417    1410
58,230    106,293    1411
58,220    106,459    1409
58,210    106,279    1411
58,200    106,307    1411
58,190    106,321    1411
58,180    106,109    1414
58,170    106,371    1410
58,160    106,426    1409
58,150    106,390    1410
58,140    106,348    1410
58,130    106,077    1414
58,120    106,091    1414
58,110    106,491    1409
58,100    106,344    1411
58,090    106,302    1411
58,080    106,132    1413
58,070    106,238    1412
58,060    106,454    1409
58,050    106,270    1411
58,040    106,219    1412
58,030    106,579    1407
58,020    106,824    1404
58,010    106,330    1411
58,000    106,164    1413
57,990    106,473    1409
57,980    106,426    1409
57,970    106,542    1408
57,960    106,468    1409
57,950    106,215    1412
57,940    106,450    1409
57,930    106,201    1412
57,920    106,519    1408
57,910    106,307    1411
57,900    106,187    1413
57,890    106,385    1410
57,880    106,468    1409
57,870    106,279    1411
57,860    106,477    1409
57,850    106,348    1410
57,840    106,353    1410
57,830    106,500    1408
57,820    106,894    1403
57,810    106,630    1407
57,800    106,579    1407
57,790    106,477    1409
57,780    106,238    1412
57,770    106,321    1411
57,760    106,160    1413
57,750    106,146    1413
57,740    106,496    1409
57,730    106,206    1412
57,720    106,454    1409
57,710    106,275    1411
57,700    106,265    1412
57,690    106,413    1410
57,680    106,119    1414
57,670    106,436    1409
57,660    106,279    1411
57,650    106,325    1411
57,640    106,528    1408
57,630    106,588    1407
57,620    106,233    1412
57,610    106,376    1410
57,600    106,288    1411
57,590    106,551    1408
57,580    106,417    1410
57,570    106,436    1409
57,560    106,662    1406
57,550    106,945    1403
57,540    106,681    1406
57,530    106,537    1408
57,520    106,570    1408
57,510    106,796    1405
57,500    106,685    1406
57,490    106,468    1409
57,480    106,593    1407
57,470    106,861    1404
57,460    106,551    1408
57,450    106,537    1408
57,440    106,834    1404
57,430    106,769    1405
57,420    106,792    1405
57,410    106,815    1404
57,400    106,334    1411
57,390    106,252    1412
57,380    106,523    1408
57,370    106,861    1404
57,360    106,773    1405
57,350    106,922    1403
57,340    107,122    1400
57,330    106,293    1411
57,320    106,459    1409
57,310    106,376    1410
57,300    106,385    1410
57,290    106,690    1406
57,280    106,551    1408
57,270    106,252    1412
57,260    106,597    1407
57,250    106,583    1407
57,240    106,570    1408
57,230    106,857    1404
57,220    106,602    1407
57,210    106,764    1405
57,200    106,500    1408
57,190    106,644    1407
57,180    106,593    1407
57,170    106,551    1408
57,160    106,583    1407
57,150    106,880    1403
57,140    106,681    1406
57,130    106,662    1406
57,120    106,727    1405
57,110    107,024    1402
57,100    106,968    1402
57,090    106,583    1407
57,080    106,718    1406
57,070    111,073    1350
57,060    106,954    1402
57,050    108,878    1378
57,040    118,479    1266
57,030    107,950    1390
57,020    108,260    1386
57,010    174,224    861
