Z-Pos[um]|R[MOhm]|I[pA]
59,065    106,357    1410
59,055    106,704    1406
59,045    106,371    1410
59,035    106,197    1412
59,025    106,302    1411
59,015    106,583    1407
59,005    106,307    1411
58,995    106,279    1411
58,985    106,219    1412
58,975    106,357    1410
58,965    106,546    1408
58,955    106,275    1411
58,945    106,353    1410
58,935    106,187    1413
58,925    106,215    1412
58,915    106,704    1406
58,905    106,894    1403
58,895    106,293    1411
58,885    106,413    1410
58,875    106,265    1412
58,865    106,380    1410
58,855    106,128    1413
58,845    106,233    1412
58,835    106,468    1409
58,825    106,201    1412
58,815    106,302    1411
58,805    106,100    1414
58,795    106,219    1412
58,785    106,579    1407
58,775    106,275    1411
58,765    106,265    1412
58,755    106,496    1409
58,745    106,330    1411
58,735    106,514    1408
58,725    106,201    1412
58,715    106,445    1409
58,705    106,261    1412
58,695    106,146    1413
58,685    106,528    1408
58,675    106,183    1413
58,665    106,174    1413
58,655    106,242    1412
58,645    106,380    1410
58,635    106,422    1409
58,625    106,454    1409
58,615    106,132    1413
58,605    106,533    1408
58,595    106,339    1411
58,585    106,357    1410
58,575    106,413    1410
58,565    106,160    1413
58,555    106,128    1413
58,545    106,514    1408
58,535    106,178    1413
58,525    106,242    1412
58,515    106,279    1411
58,505    106,542    1408
58,495    106,422    1409
58,485    106,298    1411
58,475    106,316    1411
58,465    106,238    1412
58,455    106,224    1412
58,445    106,385    1410
58,435    106,353    1410
58,425    106,174    1413
58,415    106,233    1412
58,405    106,210    1412
58,395    106,514    1408
58,385    106,357    1410
58,375    106,000    1415
58,365    106,344    1411
58,355    106,270    1411
58,345    106,413    1410
58,335    106,454    1409
58,325    106,119    1414
58,315    106,556    1408
58,305    106,233    1412
58,295    106,344    1411
58,285    106,394    1410
58,275    106,036    1415
58,265    106,334    1411
58,255    106,270    1411
58,245    106,293    1411
58,235    106,450    1409
58,225    106,206    1412
58,215    106,261    1412
58,205    106,463    1409
58,195    106,371    1410
58,185    106,367    1410
58,175    106,174    1413
58,165    106,215    1412
58,155    106,570    1408
58,145    106,348    1410
58,135    106,722    1406
58,125    106,431    1409
58,115    106,450    1409
58,105    106,676    1406
58,095    106,616    1407
58,085    106,284    1411
58,075    106,500    1408
58,065    106,745    1405
58,055    106,551    1408
58,045    106,496    1409
58,035    106,597    1407
58,025    106,468    1409
58,015    106,620    1407
58,005    106,616    1407
57,995    106,362    1410
57,985    106,533    1408
57,975    106,713    1406
57,965    106,399    1410
57,955    106,528    1408
57,945    106,620    1407
57,935    106,426    1409
57,925    106,445    1409
57,915    106,219    1412
57,905    106,229    1412
57,895    106,463    1409
57,885    106,334    1411
57,875    106,408    1410
57,865    106,348    1410
57,855    106,219    1412
57,845    106,247    1412
57,835    106,293    1411
57,825    106,334    1411
57,815    106,468    1409
57,805    106,215    1412
57,795    106,334    1411
57,785    106,537    1408
57,775    106,385    1410
57,765    106,477    1409
57,755    106,247    1412
57,745    106,334    1411
57,735    106,422    1409
57,725    106,242    1412
57,715    106,330    1411
57,705    106,477    1409
57,695    106,261    1412
57,685    106,546    1408
57,675    106,155    1413
57,665    106,371    1410
57,655    106,174    1413
57,645    106,256    1412
57,635    106,732    1405
57,625    106,325    1411
57,615    106,307    1411
57,605    106,045    1414
57,595    106,353    1410
57,585    106,551    1408
57,575    106,344    1411
57,565    106,459    1409
57,555    106,279    1411
57,545    106,316    1411
57,535    106,482    1409
57,525    106,334    1411
57,515    106,224    1412
57,505    106,334    1411
57,495    106,353    1410
57,485    106,422    1409
57,475    106,745    1405
57,465    106,431    1409
57,455    106,741    1405
57,445    106,722    1406
57,435    106,468    1409
57,425    106,708    1406
57,415    106,574    1407
57,405    106,242    1412
57,395    106,607    1407
57,385    106,353    1410
57,375    106,265    1412
57,365    106,371    1410
57,355    106,288    1411
57,345    106,602    1407
57,335    106,824    1404
57,325    106,288    1411
57,315    106,357    1410
57,305    106,796    1405
57,295    106,376    1410
57,285    106,394    1410
57,275    106,394    1410
57,265    106,681    1406
57,255    106,607    1407
57,245    106,376    1410
57,235    106,607    1407
57,225    106,681    1406
57,215    106,353    1410
57,205    106,602    1407
57,195    106,583    1407
57,185    106,620    1407
57,175    106,941    1403
57,165    106,542    1408
57,155    106,801    1404
57,145    106,820    1404
57,135    106,885    1403
57,125    106,722    1406
57,115    107,038    1401
57,105    109,047    1376
57,095    107,244    1399
57,085    110,108    1362
57,075    109,018    1376
57,065    123,349    1216
57,055    107,445    1396
57,045    126,759    1183
