Z-Pos[um]|R[MOhm]|I[pA]
61,044    106,353    1410
61,034    106,913    1403
61,024    106,330    1411
61,014    106,408    1410
61,004    106,699    1406
60,994    106,806    1404
60,984    107,216    1399
60,974    106,146    1413
60,964    106,413    1410
60,954    106,197    1412
60,944    106,339    1411
60,934    106,537    1408
60,924    106,330    1411
60,914    106,229    1412
60,904    106,252    1412
60,894    106,187    1413
60,884    106,574    1407
60,874    106,353    1410
60,864    106,288    1411
60,854    106,210    1412
60,844    106,192    1413
60,834    106,727    1405
60,824    106,344    1411
60,814    106,155    1413
60,804    106,486    1409
60,794    106,440    1409
60,784    106,759    1405
60,774    106,718    1406
60,764    106,187    1413
60,754    106,279    1411
60,744    106,362    1410
60,734    106,059    1414
60,724    106,334    1411
60,714    106,311    1411
60,704    106,302    1411
60,694    106,270    1411
60,684    106,091    1414
60,674    106,473    1409
60,664    106,311    1411
60,654    106,160    1413
60,644    106,394    1410
60,634    106,155    1413
60,624    106,302    1411
60,614    106,394    1410
60,604    106,187    1413
60,594    106,371    1410
60,584    106,036    1415
60,574    106,229    1412
60,564    106,362    1410
60,554    106,174    1413
60,544    106,662    1406
60,534    106,583    1407
60,524    106,857    1404
60,514    106,880    1403
60,504    106,607    1407
60,494    106,852    1404
60,484    106,450    1409
60,474    106,215    1412
60,464    106,036    1415
60,454    106,353    1410
60,444    106,261    1412
60,434    106,376    1410
60,424    106,348    1410
60,414    106,091    1414
60,404    106,330    1411
60,394    106,344    1411
60,384    106,096    1414
60,374    106,279    1411
60,364    106,041    1415
60,354    106,091    1414
60,344    106,496    1409
60,334    106,123    1413
60,324    106,325    1411
60,314    106,197    1412
60,304    106,137    1413
60,294    106,542    1408
60,284    106,160    1413
60,274    106,385    1410
60,264    106,321    1411
60,254    106,353    1410
60,244    106,385    1410
60,234    106,068    1414
60,224    106,431    1409
60,214    106,275    1411
60,204    106,279    1411
60,194    106,459    1409
60,184    106,330    1411
60,174    106,348    1410
60,164    106,533    1408
60,154    106,270    1411
60,144    106,380    1410
60,134    106,597    1407
60,124    106,022    1415
60,114    106,316    1411
60,104    106,385    1410
60,094    106,454    1409
60,084    106,293    1411
60,074    105,940    1416
60,064    106,242    1412
60,054    106,380    1410
60,044    106,445    1409
60,034    106,224    1412
60,024    106,068    1414
60,014    106,265    1412
60,004    106,339    1411
59,994    106,321    1411
59,984    106,275    1411
59,974    106,013    1415
59,964    106,473    1409
59,954    106,334    1411
59,944    106,247    1412
59,934    106,151    1413
59,924    106,588    1407
59,914    106,219    1412
59,904    106,417    1410
59,894    106,371    1410
59,884    106,146    1413
59,874    106,482    1409
59,864    106,311    1411
59,854    106,334    1411
59,844    106,385    1410
59,834    106,018    1415
59,824    106,201    1412
59,814    106,215    1412
59,804    106,362    1410
59,794    106,440    1409
59,784    106,224    1412
59,774    106,316    1411
59,764    106,344    1411
59,754    106,431    1409
59,744    106,394    1410
59,734    106,183    1413
59,724    106,091    1414
59,714    106,468    1409
59,704    106,169    1413
59,694    106,206    1412
59,684    106,054    1414
59,674    106,178    1413
59,664    106,482    1409
59,654    106,109    1414
59,644    106,174    1413
59,634    106,242    1412
59,624    106,270    1411
59,614    106,579    1407
59,604    106,293    1411
59,594    106,206    1412
59,584    106,215    1412
59,574    106,380    1410
59,564    106,440    1409
59,554    106,197    1412
59,544    106,087    1414
59,534    106,265    1412
59,524    106,123    1413
59,514    106,542    1408
59,504    106,468    1409
59,494    106,164    1413
59,484    106,385    1410
59,474    106,362    1410
59,464    106,288    1411
59,454    106,403    1410
59,444    106,100    1414
59,434    106,151    1413
59,424    106,344    1411
59,414    106,284    1411
59,404    106,288    1411
59,394    106,087    1414
59,384    106,064    1414
59,374    106,523    1408
59,364    106,215    1412
59,354    106,206    1412
59,344    106,307    1411
59,334    106,114    1414
59,324    106,403    1410
59,314    106,197    1412
59,304    106,321    1411
59,294    106,348    1410
59,284    106,750    1405
59,274    106,408    1410
59,264    106,109    1414
59,254    106,330    1411
59,244    106,298    1411
59,234    106,192    1413
59,224    106,482    1409
59,214    106,298    1411
59,204    106,164    1413
59,194    106,519    1408
59,184    106,413    1410
59,174    106,630    1407
59,164    106,667    1406
59,154    106,394    1410
59,144    106,426    1409
59,134    106,671    1406
59,124    106,560    1408
59,114    106,399    1410
59,104    106,694    1406
59,094    106,741    1405
59,084    106,445    1409
59,074    106,570    1408
59,064    106,565    1408
59,054    106,330    1411
59,044    106,192    1413
59,034    106,362    1410
59,024    106,087    1414
59,014    106,151    1413
59,004    106,344    1411
58,994    106,238    1412
58,984    106,426    1409
58,974    106,169    1413
58,964    106,247    1412
58,954    106,556    1408
58,944    106,178    1413
58,934    106,431    1409
58,924    106,174    1413
58,914    106,261    1412
58,904    106,408    1410
58,894    106,229    1412
58,884    106,408    1410
58,874    106,694    1406
58,864    106,588    1407
58,854    106,509    1408
58,844    106,325    1411
58,834    106,119    1414
58,824    106,275    1411
58,814    106,565    1408
58,804    106,164    1413
58,794    106,380    1410
58,784    106,050    1414
58,774    106,261    1412
58,764    106,505    1408
58,754    106,224    1412
58,744    106,385    1410
58,734    106,155    1413
58,724    106,288    1411
58,714    106,362    1410
58,704    106,224    1412
58,694    106,284    1411
58,684    106,197    1412
58,674    106,219    1412
58,664    106,523    1408
58,654    106,233    1412
58,644    106,197    1412
58,634    106,261    1412
58,624    106,579    1407
58,614    106,357    1410
58,604    106,307    1411
58,594    106,353    1410
58,584    106,403    1410
58,574    106,574    1407
58,564    106,261    1412
58,554    106,178    1413
58,544    106,229    1412
58,534    106,625    1407
58,524    106,473    1409
58,514    106,362    1410
58,504    106,091    1414
58,494    106,371    1410
58,484    106,219    1412
58,474    106,473    1409
58,464    106,477    1409
58,454    106,082    1414
58,444    106,380    1410
58,434    106,252    1412
58,424    106,339    1411
58,414    106,473    1409
58,404    106,325    1411
58,394    106,514    1408
58,384    106,265    1412
58,374    106,625    1407
58,364    106,160    1413
58,354    106,445    1409
58,344    106,463    1409
58,334    106,219    1412
58,324    106,362    1410
58,314    106,087    1414
58,304    106,068    1414
58,294    106,422    1409
58,284    106,169    1413
58,274    106,233    1412
58,264    106,311    1411
58,254    106,192    1413
58,244    106,542    1408
58,234    106,334    1411
58,224    106,330    1411
58,214    106,321    1411
58,204    106,247    1412
58,194    106,523    1408
58,184    106,344    1411
58,174    106,224    1412
58,164    106,293    1411
58,154    106,229    1412
58,144    106,459    1409
58,134    106,380    1410
58,124    106,164    1413
58,114    106,556    1408
58,104    106,385    1410
58,094    106,252    1412
58,084    106,408    1410
58,074    106,109    1414
58,064    106,371    1410
58,054    106,288    1411
58,044    106,160    1413
58,034    106,321    1411
58,024    106,206    1412
58,014    106,164    1413
58,004    106,468    1409
57,994    106,275    1411
57,984    106,426    1409
57,974    106,045    1414
57,964    106,174    1413
57,954    106,537    1408
57,944    106,399    1410
57,934    106,482    1409
57,924    106,284    1411
57,914    106,183    1413
57,904    106,454    1409
57,894    106,206    1412
57,884    106,445    1409
57,874    106,330    1411
57,864    106,197    1412
57,854    106,533    1408
57,844    106,371    1410
57,834    106,192    1413
57,824    106,311    1411
57,814    106,454    1409
57,804    106,514    1408
57,794    106,330    1411
57,784    106,114    1414
57,774    106,570    1408
57,764    106,357    1410
57,754    106,298    1411
57,744    106,403    1410
57,734    106,325    1411
57,724    106,403    1410
57,714    106,224    1412
57,704    106,385    1410
57,694    106,436    1409
57,684    106,233    1412
57,674    106,261    1412
57,664    106,385    1410
57,654    106,265    1412
57,644    106,486    1409
57,634    106,164    1413
57,624    106,288    1411
57,614    106,477    1409
57,604    106,293    1411
57,594    106,445    1409
57,584    106,210    1412
57,574    106,293    1411
57,564    106,570    1408
57,554    106,146    1413
57,544    106,302    1411
57,534    106,229    1412
57,524    106,385    1410
57,514    106,537    1408
57,504    106,265    1412
57,494    106,357    1410
57,484    106,514    1408
57,474    106,611    1407
57,464    106,750    1405
57,454    106,690    1406
57,444    106,371    1410
57,434    106,565    1408
57,424    106,616    1407
57,414    106,247    1412
57,404    106,293    1411
57,394    106,146    1413
57,384    106,169    1413
57,374    106,533    1408
57,364    106,334    1411
57,354    106,570    1408
57,344    106,426    1409
57,334    106,256    1412
57,324    106,593    1407
57,314    106,519    1408
57,304    106,468    1409
57,294    106,546    1408
57,284    106,454    1409
57,274    106,607    1407
57,264    106,454    1409
57,254    106,509    1408
57,244    106,380    1410
57,234    106,450    1409
57,224    106,718    1406
57,214    106,551    1408
57,204    106,357    1410
57,194    106,718    1406
57,184    106,399    1410
57,174    106,639    1407
57,164    106,722    1406
57,154    106,542    1408
57,144    106,796    1405
57,134    106,583    1407
57,124    106,871    1404
57,114    107,122    1400
57,104    106,959    1402
57,094    107,399    1397
57,084    106,732    1405
57,074    107,319    1398
57,064    112,739    1331
57,054    107,752    1392
57,044    108,093    1388
57,034    113,175    1325
