Z-Pos[um]|R[MOhm]|I[pA]
59,040    106,422    1409
59,030    106,843    1404
59,020    106,105    1414
59,010    106,316    1411
59,000    106,353    1410
58,990    106,454    1409
58,980    106,445    1409
58,970    106,009    1415
58,960    106,311    1411
58,950    106,367    1410
58,940    106,376    1410
58,930    106,376    1410
58,920    106,041    1415
58,910    106,242    1412
58,900    106,371    1410
58,890    106,394    1410
58,880    106,307    1411
58,870    106,013    1415
58,860    106,275    1411
58,850    106,399    1410
58,840    106,348    1410
58,830    106,215    1412
58,820    106,137    1413
58,810    106,298    1411
58,800    106,718    1406
58,790    106,348    1410
58,780    106,509    1408
58,770    106,713    1406
58,760    106,565    1408
58,750    106,616    1407
58,740    106,625    1407
58,730    106,653    1406
58,720    106,639    1407
58,710    106,718    1406
58,700    106,885    1403
58,690    106,713    1406
58,680    106,713    1406
58,670    106,736    1405
58,660    106,671    1406
58,650    106,778    1405
58,640    106,783    1405
58,630    106,829    1404
58,620    106,579    1407
58,610    106,077    1414
58,600    106,348    1410
58,590    106,357    1410
58,580    106,174    1413
58,570    106,146    1413
58,560    106,252    1412
58,550    106,408    1410
58,540    106,261    1412
58,530    106,316    1411
58,520    106,064    1414
58,510    106,077    1414
58,500    106,353    1410
58,490    106,096    1414
58,480    106,339    1411
58,470    106,215    1412
58,460    106,160    1413
58,450    106,399    1410
58,440    106,206    1412
58,430    106,357    1410
58,420    106,132    1413
58,410    106,192    1413
58,400    106,454    1409
58,390    106,187    1413
58,380    106,050    1414
58,370    106,206    1412
58,360    106,288    1411
58,350    106,463    1409
58,340    106,096    1414
58,330    106,155    1413
58,320    106,288    1411
58,310    106,261    1412
58,300    106,413    1410
58,290    106,385    1410
58,280    106,119    1414
58,270    106,357    1410
58,260    106,242    1412
58,250    106,468    1409
58,240    106,551    1408
58,230    106,187    1413
58,220    106,348    1410
58,210    106,169    1413
58,200    106,413    1410
58,190    106,265    1412
58,180    106,073    1414
58,170    106,321    1411
58,160    106,187    1413
58,150    106,413    1410
58,140    106,265    1412
58,130    106,123    1413
58,120    106,275    1411
58,110    106,298    1411
58,100    106,265    1412
58,090    106,422    1409
58,080    106,009    1415
58,070    106,238    1412
58,060    106,459    1409
58,050    106,302    1411
58,040    106,371    1410
58,030    106,119    1414
58,020    106,164    1413
58,010    106,551    1408
58,000    106,032    1415
57,990    106,330    1411
57,980    106,238    1412
57,970    106,004    1415
57,960    106,357    1410
57,950    106,206    1412
57,940    106,519    1408
57,930    106,625    1407
57,920    106,602    1407
57,910    106,690    1406
57,900    106,265    1412
57,890    106,137    1413
57,880    106,436    1409
57,870    106,676    1406
57,860    106,119    1414
57,850    106,169    1413
57,840    106,183    1413
57,830    106,077    1414
57,820    106,542    1408
57,810    106,265    1412
57,800    106,284    1411
57,790    106,353    1410
57,780    106,041    1415
57,770    106,450    1409
57,760    106,229    1412
57,750    106,325    1411
57,740    106,311    1411
57,730    106,215    1412
57,720    106,514    1408
57,710    106,275    1411
57,700    106,192    1413
57,690    106,390    1410
57,680    106,252    1412
57,670    106,792    1405
57,660    106,792    1405
57,650    106,583    1407
57,640    106,284    1411
57,630    106,671    1406
57,620    106,288    1411
57,610    106,270    1411
57,600    106,256    1412
57,590    106,367    1410
57,580    106,450    1409
57,570    106,279    1411
57,560    106,151    1413
57,550    106,334    1411
57,540    106,224    1412
57,530    106,514    1408
57,520    106,288    1411
57,510    106,298    1411
57,500    106,408    1410
57,490    106,164    1413
57,480    106,560    1408
57,470    106,362    1410
57,460    106,339    1411
57,450    106,426    1409
57,440    106,187    1413
57,430    106,477    1409
57,420    106,588    1407
57,410    106,137    1413
57,400    106,431    1409
57,390    106,252    1412
57,380    106,630    1407
57,370    106,496    1409
57,360    106,224    1412
57,350    106,385    1410
57,340    106,413    1410
57,330    106,565    1408
57,320    106,574    1407
57,310    106,426    1409
57,300    106,611    1407
57,290    106,371    1410
57,280    106,169    1413
57,270    106,528    1408
57,260    106,450    1409
57,250    106,551    1408
57,240    106,551    1408
57,230    106,380    1410
57,220    106,431    1409
57,210    106,560    1408
57,200    107,024    1402
57,190    106,824    1404
57,180    107,197    1399
57,170    107,202    1399
57,160    107,601    1394
57,150    106,959    1402
57,140    107,029    1401
57,130    108,465    1383
57,120    107,258    1398
57,110    106,866    1404
57,100    108,638    1381
57,090    107,761    1392
57,080    107,596    1394
57,070    107,605    1394
57,060    108,662    1380
57,050    109,013    1376
