Z-Pos[um]|R[MOhm]|I[pA]
58,990    106,091    1414
58,980    106,648    1406
58,970    106,371    1410
58,960    106,325    1411
58,950    106,137    1413
58,940    106,293    1411
58,930    106,463    1409
58,920    106,293    1411
58,910    106,399    1410
58,900    106,178    1413
58,890    106,496    1409
58,880    106,755    1405
58,870    106,519    1408
58,860    106,339    1411
58,850    106,597    1407
58,840    106,699    1406
58,830    106,445    1409
58,820    106,459    1409
58,810    106,197    1412
58,800    106,132    1413
58,790    106,616    1407
58,780    106,275    1411
58,770    106,238    1412
58,760    106,164    1413
58,750    106,362    1410
58,740    106,634    1407
58,730    106,109    1414
58,720    106,197    1412
58,710    106,302    1411
58,700    106,169    1413
58,690    106,413    1410
58,680    106,298    1411
58,670    106,745    1405
58,660    106,431    1409
58,650    106,593    1407
58,640    106,454    1409
58,630    106,431    1409
58,620    106,560    1408
58,610    106,727    1405
58,600    106,219    1412
58,590    106,288    1411
58,580    106,302    1411
58,570    106,288    1411
58,560    106,426    1409
58,550    106,151    1413
58,540    106,160    1413
58,530    106,574    1407
58,520    106,806    1404
58,510    106,810    1404
58,500    106,954    1402
58,490    106,875    1404
58,480    106,764    1405
58,470    106,477    1409
58,460    106,325    1411
58,450    106,155    1413
58,440    106,041    1415
58,430    106,620    1407
58,420    106,270    1411
58,410    106,160    1413
58,400    106,160    1413
58,390    106,708    1406
58,380    106,579    1407
58,370    106,334    1411
58,360    106,275    1411
58,350    106,390    1410
58,340    106,192    1413
58,330    106,445    1409
58,320    106,537    1408
58,310    106,307    1411
58,300    106,219    1412
58,290    106,611    1407
58,280    106,307    1411
58,270    106,454    1409
58,260    106,128    1413
58,250    106,183    1413
58,240    106,477    1409
58,230    106,068    1414
58,220    106,284    1411
58,210    106,128    1413
58,200    106,394    1410
58,190    106,491    1409
58,180    106,270    1411
58,170    106,482    1409
58,160    106,261    1412
58,150    106,302    1411
58,140    106,450    1409
58,130    106,256    1412
58,120    106,298    1411
58,110    106,096    1414
58,100    106,197    1412
58,090    106,597    1407
58,080    106,639    1407
58,070    106,528    1408
58,060    106,773    1405
58,050    106,880    1403
58,040    106,787    1405
58,030    106,602    1407
58,020    106,357    1410
58,010    106,357    1410
58,000    106,533    1408
57,990    106,334    1411
57,980    106,128    1413
57,970    106,357    1410
57,960    106,288    1411
57,950    106,344    1411
57,940    106,588    1407
57,930    106,454    1409
57,920    106,542    1408
57,910    106,699    1406
57,900    106,570    1408
57,890    106,247    1412
57,880    106,634    1407
57,870    106,206    1412
57,860    106,394    1410
57,850    106,348    1410
57,840    106,339    1411
57,830    106,325    1411
57,820    106,334    1411
57,810    106,390    1410
57,800    106,357    1410
57,790    106,192    1413
57,780    106,339    1411
57,770    106,468    1409
57,760    106,164    1413
57,750    106,311    1411
57,740    106,082    1414
57,730    106,183    1413
57,720    106,542    1408
57,710    106,491    1409
57,700    106,330    1411
57,690    106,408    1410
57,680    106,256    1412
57,670    106,380    1410
57,660    106,394    1410
57,650    106,109    1414
57,640    106,403    1410
57,630    106,288    1411
57,620    106,362    1410
57,610    106,385    1410
57,600    106,178    1413
57,590    106,362    1410
57,580    106,408    1410
57,570    106,321    1411
57,560    106,491    1409
57,550    106,155    1413
57,540    106,261    1412
57,530    106,473    1409
57,520    106,197    1412
57,510    106,252    1412
57,500    106,238    1412
57,490    106,583    1407
57,480    106,459    1409
57,470    106,491    1409
57,460    106,408    1410
57,450    106,155    1413
57,440    106,339    1411
57,430    106,533    1408
57,420    106,279    1411
57,410    106,440    1409
57,400    106,224    1412
57,390    106,275    1411
57,380    106,477    1409
57,370    106,344    1411
57,360    106,316    1411
57,350    106,422    1409
57,340    106,667    1406
57,330    107,010    1402
57,320    106,931    1403
57,310    106,899    1403
57,300    107,197    1399
57,290    106,667    1406
57,280    106,376    1410
57,270    106,302    1411
57,260    106,279    1411
57,250    106,546    1408
57,240    106,390    1410
57,230    106,353    1410
57,220    106,385    1410
57,210    106,431    1409
57,200    106,579    1407
57,190    106,353    1410
57,180    106,491    1409
57,170    106,459    1409
57,160    106,514    1408
57,150    106,630    1407
57,140    106,597    1407
57,130    106,634    1407
57,120    106,486    1409
57,110    106,279    1411
57,100    107,099    1401
57,090    106,889    1403
57,080    106,431    1409
57,070    107,001    1402
57,060    106,769    1405
57,050    107,146    1400
57,040    107,766    1392
57,030    107,108    1400
57,020    107,441    1396
57,010    107,394    1397
57,000    110,553    1357
56,990    110,928    1352
