Z-Pos[um]|R[MOhm]|I[pA]
59,055    106,362    1410
59,045    106,602    1407
59,035    106,394    1410
59,025    106,325    1411
59,015    106,570    1408
59,005    106,403    1410
58,995    106,219    1412
58,985    106,192    1413
58,975    106,685    1406
58,965    106,422    1409
58,955    106,482    1409
58,945    106,634    1407
58,935    106,302    1411
58,925    106,509    1408
58,915    106,417    1410
58,905    106,242    1412
58,895    106,403    1410
58,885    106,353    1410
58,875    106,431    1409
58,865    106,238    1412
58,855    106,018    1415
58,845    106,413    1410
58,835    106,408    1410
58,825    106,353    1410
58,815    106,298    1411
58,805    106,160    1413
58,795    106,238    1412
58,785    106,357    1410
58,775    106,169    1413
58,765    106,270    1411
58,755    106,210    1412
58,745    106,151    1413
58,735    106,385    1410
58,725    106,473    1409
58,715    106,137    1413
58,705    106,339    1411
58,695    106,376    1410
58,685    106,473    1409
58,675    106,473    1409
58,665    106,077    1414
58,655    106,247    1412
58,645    106,302    1411
58,635    106,316    1411
58,625    106,473    1409
58,615    106,000    1415
58,605    106,422    1409
58,595    106,151    1413
58,585    106,275    1411
58,575    106,486    1409
58,565    106,119    1414
58,555    106,417    1410
58,545    106,215    1412
58,535    106,311    1411
58,525    106,302    1411
58,515    106,160    1413
58,505    106,583    1407
58,495    106,413    1410
58,485    106,151    1413
58,475    106,321    1411
58,465    106,385    1410
58,455    106,339    1411
58,445    106,755    1405
58,435    106,745    1405
58,425    106,413    1410
58,415    106,509    1408
58,405    106,630    1407
58,395    106,408    1410
58,385    106,403    1410
58,375    106,082    1414
58,365    106,210    1412
58,355    106,496    1409
58,345    106,096    1414
58,335    106,307    1411
58,325    106,169    1413
58,315    106,192    1413
58,305    106,496    1409
58,295    106,119    1414
58,285    106,192    1413
58,275    106,224    1412
58,265    106,265    1412
58,255    106,556    1408
58,245    106,192    1413
58,235    106,242    1412
58,225    106,307    1411
58,215    106,247    1412
58,205    106,459    1409
58,195    106,279    1411
58,185    106,091    1414
58,175    106,201    1412
58,165    106,224    1412
58,155    106,376    1410
58,145    106,403    1410
58,135    106,279    1411
58,125    106,284    1411
58,115    106,252    1412
58,105    106,570    1408
58,095    106,436    1409
58,085    106,128    1413
58,075    106,399    1410
58,065    106,141    1413
58,055    106,579    1407
58,045    106,436    1409
58,035    106,164    1413
58,025    106,440    1409
58,015    106,334    1411
58,005    106,367    1410
57,995    106,676    1406
57,985    106,132    1413
57,975    106,293    1411
57,965    106,486    1409
57,955    106,224    1412
57,945    106,403    1410
57,935    106,183    1413
57,925    106,219    1412
57,915    106,445    1409
57,905    106,348    1410
57,895    106,284    1411
57,885    106,064    1414
57,875    106,160    1413
57,865    106,528    1408
57,855    106,224    1412
57,845    106,473    1409
57,835    106,238    1412
57,825    106,183    1413
57,815    106,426    1409
57,805    106,238    1412
57,795    106,256    1412
57,785    106,403    1410
57,775    106,174    1413
57,765    106,792    1405
57,755    106,690    1406
57,745    106,436    1409
57,735    106,454    1409
57,725    106,261    1412
57,715    106,436    1409
57,705    106,459    1409
57,695    106,137    1413
57,685    106,293    1411
57,675    106,206    1412
57,665    106,344    1411
57,655    106,459    1409
57,645    106,141    1413
57,635    106,353    1410
57,625    106,380    1410
57,615    106,852    1404
57,605    106,533    1408
57,595    106,597    1407
57,585    106,500    1408
57,575    106,013    1415
57,565    106,316    1411
57,555    106,215    1412
57,545    106,463    1409
57,535    106,440    1409
57,525    106,270    1411
57,515    106,032    1415
57,505    106,473    1409
57,495    106,852    1404
57,485    106,426    1409
57,475    106,073    1414
57,465    106,482    1409
57,455    106,265    1412
57,445    106,311    1411
57,435    106,422    1409
57,425    106,233    1412
57,415    106,611    1407
57,405    106,408    1410
57,395    106,417    1410
57,385    106,403    1410
57,375    106,119    1414
57,365    106,385    1410
57,355    106,570    1408
57,345    106,399    1410
57,335    106,491    1409
57,325    106,183    1413
57,315    106,399    1410
57,305    106,528    1408
57,295    106,376    1410
57,285    106,473    1409
57,275    106,394    1410
57,265    106,367    1410
57,255    106,546    1408
57,245    106,394    1410
57,235    106,422    1409
57,225    106,824    1404
57,215    106,542    1408
57,205    106,694    1406
57,195    106,704    1406
57,185    106,634    1407
57,175    107,099    1401
57,165    107,469    1396
57,155    106,583    1407
57,145    106,509    1408
57,135    107,441    1396
57,125    107,709    1393
57,115    106,838    1404
57,105    106,792    1405
57,095    107,192    1399
57,085    108,283    1385
57,075    106,871    1404
57,065    107,150    1400
57,055    108,820    1378
57,045    107,539    1395
57,035    108,902    1377
57,025    115,386    1300
