Z-Pos[um]|R[MOhm]|I[pA]
61,044    106,169    1413
61,034    106,913    1403
61,024    106,353    1410
61,014    106,431    1409
61,004    106,279    1411
60,994    105,968    1416
60,984    106,087    1414
60,974    106,533    1408
60,964    106,233    1412
60,954    106,261    1412
60,944    106,215    1412
60,934    106,201    1412
60,924    106,616    1407
60,914    106,482    1409
60,904    106,362    1410
60,894    106,270    1411
60,884    106,238    1412
60,874    106,265    1412
60,864    106,137    1413
60,854    106,321    1411
60,844    106,270    1411
60,834    106,160    1413
60,824    106,307    1411
60,814    106,100    1414
60,804    106,183    1413
60,794    106,151    1413
60,784    106,551    1408
60,774    106,155    1413
60,764    106,353    1410
60,754    106,210    1412
60,744    106,270    1411
60,734    106,450    1409
60,724    106,096    1414
60,714    106,311    1411
60,704    106,284    1411
60,694    106,210    1412
60,684    106,431    1409
60,674    106,174    1413
60,664    106,371    1410
60,654    106,210    1412
60,644    106,334    1411
60,634    106,390    1410
60,624    106,082    1414
60,614    106,440    1409
60,604    106,265    1412
60,594    106,091    1414
60,584    106,468    1409
60,574    106,380    1410
60,564    106,082    1414
60,554    106,353    1410
60,544    106,325    1411
60,534    106,394    1410
60,524    106,339    1411
60,514    106,050    1414
60,504    106,413    1410
60,494    106,353    1410
60,484    106,316    1411
60,474    106,380    1410
60,464    106,027    1415
60,454    106,334    1411
60,444    106,468    1409
60,434    106,403    1410
60,424    106,219    1412
60,414    106,119    1414
60,404    106,362    1410
60,394    106,353    1410
60,384    106,344    1411
60,374    106,311    1411
60,364    106,109    1414
60,354    106,151    1413
60,344    106,339    1411
60,334    106,288    1411
60,324    106,408    1410
60,314    106,201    1412
60,304    106,183    1413
60,294    106,344    1411
60,284    106,141    1413
60,274    106,357    1410
60,264    106,219    1412
60,254    106,146    1413
60,244    106,436    1409
60,234    106,279    1411
60,224    106,362    1410
60,214    106,215    1412
60,204    106,151    1413
60,194    106,353    1410
60,184    106,141    1413
60,174    106,178    1413
60,164    106,192    1413
60,154    106,390    1410
60,144    106,413    1410
60,134    106,036    1415
60,124    106,279    1411
60,114    106,325    1411
60,104    106,137    1413
60,094    106,486    1409
60,084    106,325    1411
60,074    106,151    1413
60,064    106,357    1410
60,054    106,302    1411
60,044    106,403    1410
60,034    106,376    1410
60,024    106,183    1413
60,014    106,348    1410
60,004    106,252    1412
59,994    106,353    1410
59,984    106,602    1407
59,974    106,137    1413
59,964    106,311    1411
59,954    106,394    1410
59,944    106,284    1411
59,934    106,468    1409
59,924    106,132    1413
59,914    106,275    1411
59,904    106,284    1411
59,894    106,302    1411
59,884    106,588    1407
59,874    106,293    1411
59,864    106,160    1413
59,854    106,496    1409
59,844    106,178    1413
59,834    106,459    1409
59,824    106,215    1412
59,814    106,045    1414
59,804    106,417    1410
59,794    106,270    1411
59,784    106,187    1413
59,774    106,321    1411
59,764    106,178    1413
59,754    106,533    1408
59,744    106,064    1414
59,734    106,597    1407
59,724    106,325    1411
59,714    106,141    1413
59,704    106,413    1410
59,694    106,311    1411
59,684    106,174    1413
59,674    106,279    1411
59,664    106,302    1411
59,654    106,371    1410
59,644    106,390    1410
59,634    106,141    1413
59,624    106,362    1410
59,614    106,390    1410
59,604    106,403    1410
59,594    106,330    1411
59,584    106,178    1413
59,574    106,556    1408
59,564    106,265    1412
59,554    106,298    1411
59,544    106,242    1412
59,534    106,091    1414
59,524    106,353    1410
59,514    106,321    1411
59,504    106,727    1405
59,494    106,413    1410
59,484    106,160    1413
59,474    106,344    1411
59,464    106,468    1409
59,454    106,321    1411
59,444    106,210    1412
59,434    106,036    1415
59,424    106,224    1412
59,414    106,486    1409
59,404    106,178    1413
59,394    106,252    1412
59,384    106,137    1413
59,374    106,293    1411
59,364    106,648    1406
59,354    106,403    1410
59,344    106,325    1411
59,334    106,302    1411
59,324    106,132    1413
59,314    106,422    1409
59,304    106,357    1410
59,294    106,233    1412
59,284    106,275    1411
59,274    106,091    1414
59,264    106,450    1409
59,254    106,385    1410
59,244    106,174    1413
59,234    106,229    1412
59,224    106,307    1411
59,214    106,496    1409
59,204    106,426    1409
59,194    106,174    1413
59,184    106,463    1409
59,174    106,353    1410
59,164    106,403    1410
59,154    106,316    1411
59,144    106,238    1412
59,134    106,505    1408
59,124    106,330    1411
59,114    106,542    1408
59,104    106,431    1409
59,094    106,109    1414
59,084    106,279    1411
59,074    106,367    1410
59,064    106,256    1412
59,054    106,477    1409
59,044    106,119    1414
59,034    106,325    1411
59,024    106,560    1408
59,014    106,229    1412
59,004    106,546    1408
58,994    106,380    1410
58,984    106,477    1409
58,974    106,852    1404
58,964    106,699    1406
58,954    106,284    1411
58,944    106,625    1407
58,934    106,699    1406
58,924    106,454    1409
58,914    106,560    1408
58,904    106,265    1412
58,894    106,197    1412
58,884    106,560    1408
58,874    106,265    1412
58,864    106,132    1413
58,854    106,325    1411
58,844    106,426    1409
58,834    106,367    1410
58,824    106,137    1413
58,814    106,380    1410
58,804    106,325    1411
58,794    106,353    1410
58,784    106,330    1411
58,774    106,197    1412
58,764    106,468    1409
58,754    106,463    1409
58,744    106,316    1411
58,734    106,403    1410
58,724    106,201    1412
58,714    106,229    1412
58,704    106,533    1408
58,694    106,164    1413
58,684    106,353    1410
58,674    106,242    1412
58,664    106,339    1411
58,654    106,325    1411
58,644    106,454    1409
58,634    106,252    1412
58,624    106,119    1414
58,614    106,311    1411
58,604    106,477    1409
58,594    106,192    1413
58,584    106,206    1412
58,574    106,634    1407
58,564    106,242    1412
58,554    106,275    1411
58,544    106,574    1407
58,534    106,473    1409
58,524    106,298    1411
58,514    106,436    1409
58,504    106,330    1411
58,494    106,371    1410
58,484    106,054    1414
58,474    106,265    1412
58,464    106,459    1409
58,454    106,146    1413
58,444    106,399    1410
58,434    106,242    1412
58,424    106,321    1411
58,414    106,514    1408
58,404    106,215    1412
58,394    106,491    1409
58,384    106,027    1415
58,374    106,426    1409
58,364    106,128    1413
58,354    106,413    1410
58,344    106,477    1409
58,334    106,385    1410
58,324    106,625    1407
58,314    106,279    1411
58,304    106,146    1413
58,294    106,353    1410
58,284    106,450    1409
58,274    106,732    1405
58,264    106,727    1405
58,254    106,727    1405
58,244    106,787    1405
58,234    106,838    1404
58,224    106,778    1405
58,214    106,394    1410
58,204    106,128    1413
58,194    106,440    1409
58,184    106,413    1410
58,174    106,256    1412
58,164    106,238    1412
58,154    106,197    1412
58,144    106,390    1410
58,134    106,151    1413
58,124    106,178    1413
58,114    106,371    1410
58,104    106,288    1411
58,094    106,390    1410
58,084    106,215    1412
58,074    106,408    1410
58,064    106,440    1409
58,054    106,256    1412
58,044    106,450    1409
58,034    106,256    1412
58,024    106,201    1412
58,014    106,380    1410
58,004    106,288    1411
57,994    106,537    1408
57,984    106,408    1410
57,974    106,132    1413
57,964    106,376    1410
57,954    106,298    1411
57,944    106,551    1408
57,934    106,644    1407
57,924    106,514    1408
57,914    106,426    1409
57,904    106,755    1405
57,894    106,551    1408
57,884    106,491    1409
57,874    106,616    1407
57,864    106,528    1408
57,854    106,537    1408
57,844    106,500    1408
57,834    106,155    1413
57,824    106,357    1410
57,814    106,417    1410
57,804    106,334    1411
57,794    106,321    1411
57,784    106,242    1412
57,774    106,298    1411
57,764    106,394    1410
57,754    106,265    1412
57,744    106,560    1408
57,734    106,160    1413
57,724    106,275    1411
57,714    106,394    1410
57,704    106,399    1410
57,694    106,284    1411
57,684    106,224    1412
57,674    106,160    1413
57,664    106,408    1410
57,654    106,174    1413
57,644    106,252    1412
57,634    106,440    1409
57,624    106,330    1411
57,614    106,353    1410
57,604    106,546    1408
57,594    106,164    1413
57,584    106,394    1410
57,574    106,866    1404
57,564    106,829    1404
57,554    106,848    1404
57,544    106,968    1402
57,534    106,408    1410
57,524    106,367    1410
57,514    106,565    1408
57,504    106,247    1412
57,494    106,311    1411
57,484    106,422    1409
57,474    106,523    1408
57,464    106,403    1410
57,454    106,275    1411
57,444    106,450    1409
57,434    106,376    1410
57,424    106,440    1409
57,414    106,496    1409
57,404    106,233    1412
57,394    106,399    1410
57,384    106,454    1409
57,374    106,399    1410
57,364    106,699    1406
57,354    106,302    1411
57,344    106,463    1409
57,334    106,611    1407
57,324    106,394    1410
57,314    106,496    1409
57,304    106,160    1413
57,294    106,528    1408
57,284    106,542    1408
57,274    106,302    1411
57,264    106,256    1412
57,254    106,454    1409
57,244    106,519    1408
57,234    106,708    1406
57,224    106,330    1411
57,214    106,565    1408
57,204    106,620    1407
57,194    106,486    1409
57,184    106,843    1404
57,174    106,745    1405
57,164    106,436    1409
57,154    106,537    1408
57,144    106,593    1407
57,134    106,978    1402
57,124    106,917    1403
57,114    106,597    1407
57,104    106,745    1405
57,094    107,080    1401
57,084    107,413    1396
57,074    106,996    1402
57,064    107,328    1398
57,054    115,810    1295
57,044    109,577    1369
57,034    108,012    1389
57,024    175,882    853
57,014    149,881    1001
