Z-Pos[um]|R[MOhm]|I[pA]
58,990    106,275    1411
58,980    106,787    1405
58,970    106,436    1409
58,960    106,252    1412
58,950    106,422    1409
58,940    106,519    1408
58,930    106,242    1412
58,920    106,344    1411
58,910    106,560    1408
58,900    106,482    1409
58,890    106,316    1411
58,880    106,229    1412
58,870    106,348    1410
58,860    106,546    1408
58,850    106,334    1411
58,840    106,219    1412
58,830    106,114    1414
58,820    106,298    1411
58,810    106,593    1407
58,800    106,197    1412
58,790    106,357    1410
58,780    106,514    1408
58,770    106,256    1412
58,760    106,546    1408
58,750    106,293    1411
58,740    106,413    1410
58,730    106,146    1413
58,720    106,146    1413
58,710    106,334    1411
58,700    106,408    1410
58,690    106,054    1414
58,680    106,279    1411
58,670    106,353    1410
58,660    106,440    1409
58,650    106,330    1411
58,640    106,206    1412
58,630    106,376    1410
58,620    106,321    1411
58,610    106,413    1410
58,600    106,247    1412
58,590    106,201    1412
58,580    106,454    1409
58,570    106,146    1413
58,560    106,339    1411
58,550    106,321    1411
58,540    106,160    1413
58,530    106,417    1410
58,520    106,353    1410
58,510    106,298    1411
58,500    106,261    1412
58,490    106,197    1412
58,480    107,300    1398
58,470    106,496    1409
58,460    106,440    1409
58,450    106,298    1411
58,440    106,820    1404
58,430    106,959    1402
58,420    106,718    1406
58,410    106,385    1410
58,400    106,445    1409
58,390    106,210    1412
58,380    106,500    1408
58,370    106,431    1409
58,360    106,064    1414
58,350    106,477    1409
58,340    106,445    1409
58,330    106,330    1411
58,320    106,380    1410
58,310    106,128    1413
58,300    106,376    1410
58,290    106,279    1411
58,280    106,284    1411
58,270    106,376    1410
58,260    106,824    1404
58,250    106,371    1410
58,240    106,164    1413
58,230    106,367    1410
58,220    106,238    1412
58,210    106,036    1415
58,200    106,426    1409
58,190    106,229    1412
58,180    106,311    1411
58,170    106,417    1410
58,160    106,201    1412
58,150    106,477    1409
58,140    106,201    1412
58,130    106,265    1412
58,120    106,325    1411
58,110    106,275    1411
58,100    106,445    1409
58,090    106,174    1413
58,080    106,256    1412
58,070    106,288    1411
58,060    106,265    1412
58,050    106,330    1411
58,040    106,417    1410
58,030    106,187    1413
58,020    106,390    1410
58,010    106,238    1412
58,000    106,422    1409
57,990    106,334    1411
57,980    106,321    1411
57,970    106,105    1414
57,960    106,667    1406
57,950    106,197    1412
57,940    106,330    1411
57,930    106,265    1412
57,920    105,995    1415
57,910    106,463    1409
57,900    106,178    1413
57,890    106,371    1410
57,880    106,357    1410
57,870    106,155    1413
57,860    106,588    1407
57,850    106,206    1412
57,840    106,284    1411
57,830    106,288    1411
57,820    106,160    1413
57,810    106,620    1407
57,800    106,270    1411
57,790    106,201    1412
57,780    106,367    1410
57,770    106,367    1410
57,760    106,473    1409
57,750    106,426    1409
57,740    106,261    1412
57,730    106,450    1409
57,720    106,468    1409
57,710    106,417    1410
57,700    106,403    1410
57,690    106,197    1412
57,680    106,394    1410
57,670    106,330    1411
57,660    106,519    1408
57,650    106,353    1410
57,640    106,275    1411
57,630    106,376    1410
57,620    106,293    1411
57,610    106,528    1408
57,600    106,500    1408
57,590    106,151    1413
57,580    106,311    1411
57,570    106,533    1408
57,560    106,316    1411
57,550    106,390    1410
57,540    106,192    1413
57,530    106,607    1407
57,520    106,537    1408
57,510    106,206    1412
57,500    106,426    1409
57,490    106,270    1411
57,480    106,408    1410
57,470    106,371    1410
57,460    106,334    1411
57,450    106,367    1410
57,440    106,183    1413
57,430    106,247    1412
57,420    106,528    1408
57,410    106,298    1411
57,400    106,357    1410
57,390    106,256    1412
57,380    106,224    1412
57,370    106,500    1408
57,360    106,445    1409
57,350    106,330    1411
57,340    106,722    1406
57,330    106,676    1406
57,320    106,694    1406
57,310    106,542    1408
57,300    106,486    1409
57,290    106,477    1409
57,280    106,630    1407
57,270    106,450    1409
57,260    106,523    1408
57,250    106,321    1411
57,240    106,408    1410
57,230    106,634    1407
57,220    106,519    1408
57,210    106,745    1405
57,200    106,987    1402
57,190    107,220    1399
57,180    106,959    1402
57,170    106,903    1403
57,160    106,843    1404
57,150    106,565    1408
57,140    106,671    1406
57,130    106,806    1404
57,120    106,348    1410
57,110    106,718    1406
57,100    106,968    1402
57,090    106,787    1405
57,080    107,029    1401
57,070    106,736    1405
57,060    106,922    1403
57,050    106,978    1402
57,040    117,961    1272
57,030    107,408    1397
57,020    125,882    1192
57,010    107,399    1397
57,000    108,074    1388
56,990    117,521    1276
56,980    109,999    1364
