Z-Pos[um]|R[MOhm]|I[pA]
59,115    106,367    1410
59,105    106,718    1406
59,095    106,293    1411
59,085    106,114    1414
59,075    106,556    1408
59,065    106,468    1409
59,055    106,270    1411
59,045    106,436    1409
59,035    106,151    1413
59,025    106,151    1413
59,015    106,468    1409
59,005    106,330    1411
58,995    106,376    1410
58,985    106,146    1413
58,975    106,238    1412
58,965    106,385    1410
58,955    106,233    1412
58,945    106,298    1411
58,935    106,311    1411
58,925    106,261    1412
58,915    106,519    1408
58,905    106,261    1412
58,895    106,330    1411
58,885    106,316    1411
58,875    106,270    1411
58,865    106,500    1408
58,855    106,160    1413
58,845    106,105    1414
58,835    106,238    1412
58,825    106,187    1413
58,815    106,440    1409
58,805    106,371    1410
58,795    106,036    1415
58,785    106,496    1409
58,775    106,394    1410
58,765    106,431    1409
58,755    106,537    1408
58,745    106,390    1410
58,735    106,556    1408
58,725    106,570    1408
58,715    106,473    1409
58,705    106,565    1408
58,695    106,482    1409
58,685    106,270    1411
58,675    106,662    1406
58,665    106,514    1408
58,655    106,137    1413
58,645    106,390    1410
58,635    106,137    1413
58,625    106,450    1409
58,615    106,491    1409
58,605    106,077    1414
58,595    106,431    1409
58,585    106,390    1410
58,575    106,293    1411
58,565    106,413    1410
58,555    106,160    1413
58,545    106,302    1411
58,535    106,454    1409
58,525    106,334    1411
58,515    106,491    1409
58,505    106,247    1412
58,495    106,210    1412
58,485    106,431    1409
58,475    106,114    1414
58,465    106,440    1409
58,455    106,068    1414
58,445    106,178    1413
58,435    106,353    1410
58,425    106,316    1411
58,415    106,059    1414
58,405    106,288    1411
58,395    106,403    1410
58,385    106,178    1413
58,375    106,551    1408
58,365    106,105    1414
58,355    106,403    1410
58,345    106,463    1409
58,335    106,219    1412
58,325    106,293    1411
58,315    106,265    1412
58,305    106,270    1411
58,295    106,537    1408
58,285    106,307    1411
58,275    106,445    1409
58,265    106,206    1412
58,255    106,146    1413
58,245    106,390    1410
58,235    106,311    1411
58,225    106,256    1412
58,215    106,256    1412
58,205    106,192    1413
58,195    106,463    1409
58,185    106,339    1411
58,175    106,105    1414
58,165    106,252    1412
58,155    106,302    1411
58,145    106,459    1409
58,135    106,413    1410
58,125    106,068    1414
58,115    106,588    1407
58,105    106,445    1409
58,095    106,810    1404
58,085    106,657    1406
58,075    106,722    1406
58,065    106,630    1407
58,055    106,945    1403
58,045    106,899    1403
58,035    106,764    1405
58,025    106,708    1406
58,015    106,880    1403
58,005    106,491    1409
57,995    106,123    1413
57,985    106,463    1409
57,975    106,247    1412
57,965    106,321    1411
57,955    106,468    1409
57,945    106,233    1412
57,935    106,413    1410
57,925    106,519    1408
57,915    106,206    1412
57,905    106,496    1409
57,895    106,252    1412
57,885    106,174    1413
57,875    106,630    1407
57,865    106,242    1412
57,855    106,704    1406
57,845    106,334    1411
57,835    106,137    1413
57,825    106,505    1408
57,815    106,270    1411
57,805    106,293    1411
57,795    106,436    1409
57,785    106,403    1410
57,775    106,408    1410
57,765    106,233    1412
57,755    106,279    1411
57,745    106,450    1409
57,735    106,288    1411
57,725    106,542    1408
57,715    106,362    1410
57,705    106,302    1411
57,695    106,533    1408
57,685    106,348    1410
57,675    106,473    1409
57,665    106,570    1408
57,655    106,164    1413
57,645    106,399    1410
57,635    106,261    1412
57,625    106,491    1409
57,615    106,602    1407
57,605    106,155    1413
57,595    106,385    1410
57,585    106,275    1411
57,575    106,491    1409
57,565    106,551    1408
57,555    106,192    1413
57,545    106,321    1411
57,535    106,371    1410
57,525    106,334    1411
57,515    106,413    1410
57,505    106,201    1412
57,495    106,413    1410
57,485    106,376    1410
57,475    106,334    1411
57,465    106,509    1408
57,455    106,229    1412
57,445    106,533    1408
57,435    106,653    1406
57,425    106,491    1409
57,415    106,477    1409
57,405    106,334    1411
57,395    106,265    1412
57,385    106,496    1409
57,375    106,413    1410
57,365    106,514    1408
57,355    106,454    1409
57,345    106,602    1407
57,335    106,611    1407
57,325    106,096    1414
57,315    106,574    1407
57,305    106,611    1407
57,295    106,708    1406
57,285    106,556    1408
57,275    106,279    1411
57,265    106,570    1408
57,255    106,574    1407
57,245    106,773    1405
57,235    106,588    1407
57,225    106,514    1408
57,215    106,671    1406
57,205    106,829    1404
57,195    106,750    1405
57,185    106,945    1403
57,175    106,741    1405
57,165    106,750    1405
57,155    107,136    1400
57,145    107,253    1399
57,135    107,076    1401
57,125    107,136    1400
57,115    107,984    1389
57,105    109,656    1368
57,095    111,699    1343
