Z-Pos[um]|R[MOhm]|I[pA]
59,045    106,265    1412
59,035    106,829    1404
59,025    106,565    1408
59,015    106,783    1405
59,005    106,440    1409
58,995    106,321    1411
58,985    106,265    1412
58,975    106,792    1405
58,965    106,004    1415
58,955    106,403    1410
58,945    106,334    1411
58,935    106,302    1411
58,925    106,270    1411
58,915    106,155    1413
58,905    106,376    1410
58,895    106,348    1410
58,885    106,261    1412
58,875    106,611    1407
58,865    106,238    1412
58,855    106,210    1412
58,845    106,445    1409
58,835    106,316    1411
58,825    106,321    1411
58,815    106,238    1412
58,805    106,068    1414
58,795    106,311    1411
58,785    106,588    1407
58,775    106,275    1411
58,765    106,146    1413
58,755    106,219    1412
58,745    106,551    1408
58,735    106,256    1412
58,725    106,247    1412
58,715    106,215    1412
58,705    106,380    1410
58,695    106,625    1407
58,685    106,339    1411
58,675    106,155    1413
58,665    106,431    1409
58,655    106,288    1411
58,645    106,353    1410
58,635    106,426    1409
58,625    106,018    1415
58,615    106,321    1411
58,605    106,004    1415
58,595    106,542    1408
58,585    106,394    1410
58,575    106,201    1412
58,565    106,431    1409
58,555    106,546    1408
58,545    106,505    1408
58,535    106,616    1407
58,525    106,183    1413
58,515    106,459    1409
58,505    106,288    1411
58,495    106,459    1409
58,485    106,252    1412
58,475    106,215    1412
58,465    106,964    1402
58,455    106,293    1411
58,445    106,334    1411
58,435    106,233    1412
58,425    106,178    1413
58,415    106,357    1410
58,405    106,330    1411
58,395    106,091    1414
58,385    106,233    1412
58,375    106,334    1411
58,365    106,408    1410
58,355    106,426    1409
58,345    106,178    1413
58,335    106,616    1407
58,325    106,533    1408
58,315    106,431    1409
58,305    106,330    1411
58,295    106,390    1410
58,285    106,917    1403
58,275    106,922    1403
58,265    106,574    1407
58,255    106,009    1415
58,245    106,367    1410
58,235    106,183    1413
58,225    106,491    1409
58,215    106,385    1410
58,205    106,197    1412
58,195    106,885    1403
58,185    106,496    1409
58,175    106,344    1411
58,165    106,357    1410
58,155    106,132    1413
58,145    106,270    1411
58,135    106,560    1408
58,125    106,353    1410
58,115    106,284    1411
58,105    106,367    1410
58,095    106,174    1413
58,085    106,417    1410
58,075    106,390    1410
58,065    106,073    1414
58,055    106,482    1409
58,045    106,399    1410
58,035    106,426    1409
58,025    106,450    1409
58,015    106,160    1413
58,005    106,380    1410
57,995    106,215    1412
57,985    106,417    1410
57,975    106,486    1409
57,965    106,059    1414
57,955    106,445    1409
57,945    106,105    1414
57,935    106,607    1407
57,925    106,394    1410
57,915    106,160    1413
57,905    106,399    1410
57,895    106,302    1411
57,885    106,298    1411
57,875    106,353    1410
57,865    106,210    1412
57,855    106,450    1409
57,845    106,422    1409
57,835    106,229    1412
57,825    106,408    1410
57,815    106,096    1414
57,805    106,160    1413
57,795    106,537    1408
57,785    106,242    1412
57,775    106,431    1409
57,765    106,128    1413
57,755    106,242    1412
57,745    106,486    1409
57,735    106,219    1412
57,725    106,357    1410
57,715    106,229    1412
57,705    106,197    1412
57,695    106,403    1410
57,685    106,256    1412
57,675    106,321    1411
57,665    106,229    1412
57,655    106,247    1412
57,645    106,468    1409
57,635    106,311    1411
57,625    106,284    1411
57,615    106,533    1408
57,605    106,459    1409
57,595    106,602    1407
57,585    106,288    1411
57,575    106,316    1411
57,565    106,330    1411
57,555    106,514    1408
57,545    106,454    1409
57,535    106,394    1410
57,525    106,298    1411
57,515    106,500    1408
57,505    106,408    1410
57,495    106,353    1410
57,485    106,459    1409
57,475    106,302    1411
57,465    106,187    1413
57,455    106,533    1408
57,445    106,265    1412
57,435    106,201    1412
57,425    106,206    1412
57,415    106,293    1411
57,405    106,718    1406
57,395    106,861    1404
57,385    106,496    1409
57,375    106,468    1409
57,365    106,426    1409
57,355    106,519    1408
57,345    106,385    1410
57,335    106,252    1412
57,325    106,551    1408
57,315    106,436    1409
57,305    106,505    1408
57,295    106,426    1409
57,285    106,298    1411
57,275    106,657    1406
57,265    106,903    1403
57,255    106,588    1407
57,245    106,653    1406
57,235    106,806    1404
57,225    106,704    1406
57,215    106,815    1404
57,205    106,927    1403
57,195    106,611    1407
57,185    106,820    1404
57,175    107,216    1399
57,165    106,759    1405
57,155    106,713    1406
57,145    107,197    1399
57,135    106,690    1406
57,125    107,024    1402
57,115    107,122    1400
57,105    106,736    1405
57,095    107,197    1399
57,085    106,913    1403
57,075    107,927    1390
57,065    107,681    1393
57,055    107,460    1396
57,045    163,895    915
57,035    148,236    1012
