Z-Pos[um]|R[MOhm]|I[pA]
59,010    106,468    1409
59,000    106,848    1404
58,990    106,463    1409
58,980    106,219    1412
58,970    106,565    1408
58,960    106,279    1411
58,950    106,344    1411
58,940    106,450    1409
58,930    106,242    1412
58,920    106,454    1409
58,910    106,528    1408
58,900    106,224    1412
58,890    106,417    1410
58,880    106,045    1414
58,870    106,367    1410
58,860    106,607    1407
58,850    106,279    1411
58,840    106,509    1408
58,830    106,238    1412
58,820    106,087    1414
58,810    106,528    1408
58,800    106,293    1411
58,790    106,380    1410
58,780    106,334    1411
58,770    106,247    1412
58,760    106,620    1407
58,750    106,316    1411
58,740    106,265    1412
58,730    106,450    1409
58,720    106,426    1409
58,710    106,357    1410
58,700    106,275    1411
58,690    106,302    1411
58,680    106,357    1410
58,670    106,210    1412
58,660    106,413    1410
58,650    106,288    1411
58,640    106,311    1411
58,630    106,704    1406
58,620    106,496    1409
58,610    106,514    1408
58,600    106,574    1407
58,590    106,087    1414
58,580    106,215    1412
58,570    106,500    1408
58,560    106,183    1413
58,550    106,417    1410
58,540    106,050    1414
58,530    106,224    1412
58,520    106,593    1407
58,510    106,339    1411
58,500    106,284    1411
58,490    106,344    1411
58,480    106,362    1410
58,470    106,408    1410
58,460    106,298    1411
58,450    106,027    1415
58,440    106,403    1410
58,430    106,459    1409
58,420    106,362    1410
58,410    106,477    1409
58,400    106,119    1414
58,390    106,450    1409
58,380    106,583    1407
58,370    106,164    1413
58,360    106,357    1410
58,350    106,123    1413
58,340    106,330    1411
58,330    106,509    1408
58,320    106,321    1411
58,310    106,426    1409
58,300    106,114    1414
58,290    106,348    1410
58,280    106,440    1409
58,270    106,311    1411
58,260    106,316    1411
58,250    106,357    1410
58,240    106,132    1413
58,230    106,445    1409
58,220    106,293    1411
58,210    106,160    1413
58,200    106,339    1411
58,190    106,440    1409
58,180    106,861    1404
58,170    107,132    1400
58,160    106,648    1406
58,150    106,367    1410
58,140    106,463    1409
58,130    106,293    1411
58,120    106,385    1410
58,110    106,247    1412
58,100    106,155    1413
58,090    106,611    1407
58,080    106,330    1411
58,070    106,279    1411
58,060    106,307    1411
58,050    106,206    1412
58,040    106,440    1409
58,030    106,630    1407
58,020    106,229    1412
58,010    106,611    1407
58,000    106,132    1413
57,990    106,311    1411
57,980    106,620    1407
57,970    106,293    1411
57,960    106,560    1408
57,950    106,348    1410
57,940    106,519    1408
57,930    106,197    1412
57,920    106,348    1410
57,910    106,546    1408
57,900    106,302    1411
57,890    106,468    1409
57,880    106,174    1413
57,870    106,270    1411
57,860    106,514    1408
57,850    106,265    1412
57,840    106,403    1410
57,830    106,219    1412
57,820    106,311    1411
57,810    106,852    1404
57,800    106,579    1407
57,790    106,565    1408
57,780    106,482    1409
57,770    106,570    1408
57,760    106,662    1406
57,750    106,523    1408
57,740    106,270    1411
57,730    106,473    1409
57,720    106,509    1408
57,710    106,344    1411
57,700    106,611    1407
57,690    106,242    1412
57,680    106,662    1406
57,670    106,574    1407
57,660    106,408    1410
57,650    106,353    1410
57,640    106,482    1409
57,630    106,436    1409
57,620    106,644    1407
57,610    106,454    1409
57,600    106,242    1412
57,590    106,551    1408
57,580    106,422    1409
57,570    106,486    1409
57,560    106,325    1411
57,550    106,155    1413
57,540    106,417    1410
57,530    106,440    1409
57,520    106,408    1410
57,510    106,390    1410
57,500    106,261    1412
57,490    106,459    1409
57,480    106,431    1409
57,470    106,491    1409
57,460    106,311    1411
57,450    106,146    1413
57,440    106,426    1409
57,430    106,597    1407
57,420    106,445    1409
57,410    106,528    1408
57,400    106,242    1412
57,390    106,307    1411
57,380    106,537    1408
57,370    106,838    1404
57,360    106,875    1404
57,350    106,829    1404
57,340    106,657    1406
57,330    106,750    1405
57,320    106,834    1404
57,310    106,783    1405
57,300    106,390    1410
57,290    106,560    1408
57,280    106,431    1409
57,270    106,852    1404
57,260    106,486    1409
57,250    106,690    1406
57,240    106,602    1407
57,230    106,968    1402
57,220    107,150    1400
57,210    107,024    1402
57,200    107,052    1401
57,190    106,773    1405
57,180    107,291    1398
57,170    107,127    1400
57,160    107,104    1401
57,150    107,239    1399
57,140    107,052    1401
57,130    107,258    1398
57,120    107,563    1395
57,110    107,216    1399
57,100    107,587    1394
57,090    107,993    1389
57,080    107,539    1395
57,070    107,827    1391
57,060    107,554    1395
57,050    107,356    1397
57,040    131,444    1141
57,030    108,412    1384
57,020    158,647    945
57,010    117,101    1281
